,subject_ids,Img1,Img2,Img3,round,CamNum,SD_card,choice
1,31428286,03_05_SH_000001.JPG,03_05_SH_000002.JPG,03_05_SH_000003.JPG,1,NA,NA,NOTHINGHERE
2,31428287,03_05_SH_000004.JPG,03_05_SH_000005.JPG,03_05_SH_000006.JPG,1,NA,NA,NOTHINGHERE
3,31428288,03_05_SH_000007.JPG,03_05_SH_000008.JPG,03_05_SH_000009.JPG,1,NA,NA,NOTHINGHERE
4,31428289,03_05_SH_000010.JPG,03_05_SH_000011.JPG,03_05_SH_000012.JPG,1,NA,NA,NOTHINGHERE
5,31428291,04_26_WF_000001.JPG,04_26_WF_000002.JPG,04_26_WF_000003.JPG,1,NA,NA,NOTHINGHERE
6,31428292,04_26_WF_000004.JPG,04_26_WF_000005.JPG,04_26_WF_000006.JPG,1,NA,NA,NOTHINGHERE
7,31428293,04_26_WF_000007.JPG,04_26_WF_000008.JPG,04_26_WF_000009.JPG,1,NA,NA,NOTHINGHERE
8,31428294,04_26_WF_000010.JPG,04_26_WF_000011.JPG,04_26_WF_000012.JPG,1,NA,NA,NOTHINGHERE
9,31428295,04_26_WF_000013.JPG,04_26_WF_000014.JPG,04_26_WF_000015.JPG,1,NA,NA,CROWORRAVEN
10,31428296,04_26_WF_000016.JPG,04_26_WF_000017.JPG,04_26_WF_000018.JPG,1,NA,NA,NOTHINGHERE
11,31428297,04_26_WF_000019.JPG,04_26_WF_000020.JPG,04_26_WF_000021.JPG,1,NA,NA,DEERWHITETAILED
12,31428298,04_26_WF_000022.JPG,04_26_WF_000023.JPG,04_26_WF_000024.JPG,1,NA,NA,DEERWHITETAILED
13,31428299,04_26_WF_000025.JPG,04_26_WF_000026.JPG,04_26_WF_000027.JPG,1,NA,NA,DEERWHITETAILED
14,31428300,04_26_WF_000028.JPG,04_26_WF_000029.JPG,04_26_WF_000030.JPG,1,NA,NA,DEERWHITETAILED
15,31428302,04_26_WF_000034.JPG,04_26_WF_000035.JPG,04_26_WF_000036.JPG,1,NA,NA,DEERWHITETAILED
16,31428303,04_26_WF_000037.JPG,04_26_WF_000038.JPG,04_26_WF_000039.JPG,1,NA,NA,DOMESTICDOG
17,31428304,04_26_WF_000040.JPG,04_26_WF_000041.JPG,04_26_WF_000042.JPG,1,NA,NA,COYOTE
18,31428305,04_26_WF_000043.JPG,04_26_WF_000044.JPG,04_26_WF_000045.JPG,1,NA,NA,HUMAN
19,31428306,04_26_WF_000046.JPG,04_26_WF_000047.JPG,04_26_WF_000048.JPG,1,NA,NA,COYOTE
20,31428307,04_26_WF_000049.JPG,04_26_WF_000050.JPG,04_26_WF_000051.JPG,1,NA,NA,NOTHINGHERE
21,31428308,08_23_DEG_000001.JPG,08_23_DEG_000002.JPG,08_23_DEG_000003.JPG,1,NA,NA,SOMETHINGHERE
22,31428309,08_23_DEG_000004.JPG,08_23_DEG_000005.JPG,08_23_DEG_000006.JPG,1,NA,NA,DEERWHITETAILED
23,31428311,08_23_DEG_000010.JPG,08_23_DEG_000011.JPG,08_23_DEG_000012.JPG,1,NA,NA,NOTHINGHERE
24,31428313,09_25_WF_000001.JPG,09_25_WF_000002.JPG,09_25_WF_000003.JPG,1,NA,NA,DEERWHITETAILED
25,31428314,09_25_WF_000004.JPG,09_25_WF_000005.JPG,09_25_WF_000006.JPG,1,NA,NA,SQUIRRELGRAY
26,31428315,11_13_BC_000002.JPG,11_13_BC_000001.JPG,11_13_BC_000003.JPG,1,NA,NA,DEERWHITETAILED
27,31428316,11_13_BC_000004.JPG,11_13_BC_000005.JPG,11_13_BC_000006.JPG,1,NA,NA,DEERWHITETAILED
28,31428317,11_13_BC_000007.JPG,11_13_BC_000008.JPG,11_13_BC_000009.JPG,1,NA,NA,NOTHINGHERE
29,31428318,11_13_BC_000010.JPG,11_13_BC_000011.JPG,11_13_BC_000012.JPG,1,NA,NA,NOTHINGHERE
30,31428321,11_13_BC_000019.JPG,11_13_BC_000020.JPG,11_13_BC_000021.JPG,1,NA,NA,SQUIRRELGRAY
31,31428322,11_13_BC_000022.JPG,11_13_BC_000023.JPG,11_13_BC_000024.JPG,1,NA,NA,SQUIRRELGRAY
32,31428324,11_13_BC_000028.JPG,11_13_BC_000029.JPG,11_13_BC_000030.JPG,1,NA,NA,SQUIRRELGRAY
33,31428325,11_13_BC_000031.JPG,11_13_BC_000032.JPG,11_13_BC_000033.JPG,1,NA,NA,SQUIRRELGRAY
34,31428326,11_13_BC_000034.JPG,11_13_BC_000035.JPG,11_13_BC_000036.JPG,1,NA,NA,SQUIRRELGRAY
35,31428327,11_13_BC_000037.JPG,11_13_BC_000038.JPG,11_13_BC_000039.JPG,1,NA,NA,NOTHINGHERE
36,31428328,11_13_BC_000040.JPG,11_13_BC_000041.JPG,11_13_BC_000042.JPG,1,NA,NA,SQUIRRELGRAY
37,31428330,11_13_BC_000046.JPG,11_13_BC_000047.JPG,11_13_BC_000048.JPG,1,NA,NA,PORCUPINE
38,31428331,11_13_BC_000049.JPG,11_13_BC_000050.JPG,11_13_BC_000051.JPG,1,NA,NA,PORCUPINE
39,31428332,11_13_BC_000052.JPG,11_13_BC_000053.JPG,11_13_BC_000054.JPG,1,NA,NA,SQUIRRELGRAY
40,31428334,11_13_BC_000058.JPG,11_13_BC_000059.JPG,11_13_BC_000060.JPG,1,NA,NA,NOTHINGHERE
41,31428335,11_13_BC_000061.JPG,11_13_BC_000062.JPG,11_13_BC_000063.JPG,1,NA,NA,SQUIRRELGRAY
42,31428337,11_13_BC_000067.JPG,11_13_BC_000068.JPG,11_13_BC_000069.JPG,1,NA,NA,SQUIRRELGRAY
43,31428339,11_13_BC_000073.JPG,11_13_BC_000074.JPG,11_13_BC_000075.JPG,1,NA,NA,PORCUPINE
44,31428340,11_13_BC_000076.JPG,11_13_BC_000077.JPG,11_13_BC_000078.JPG,1,NA,NA,SQUIRRELGRAY
45,31428341,11_13_BC_000079.JPG,11_13_BC_000080.JPG,11_13_BC_000081.JPG,1,NA,NA,SQUIRRELGRAY
46,31428342,11_13_BC_000082.JPG,11_13_BC_000083.JPG,11_13_BC_000084.JPG,1,NA,NA,PORCUPINE
47,31428343,11_13_BC_000085.JPG,11_13_BC_000086.JPG,11_13_BC_000087.JPG,1,NA,NA,NOTHINGHERE
48,31428344,11_13_BC_000088.JPG,11_13_BC_000089.JPG,11_13_BC_000090.JPG,1,NA,NA,SQUIRRELGRAY
49,31428345,11_13_BC_000091.JPG,11_13_BC_000092.JPG,11_13_BC_000093.JPG,1,NA,NA,SQUIRRELGRAY
50,31428346,11_13_BC_000094.JPG,11_13_BC_000095.JPG,11_13_BC_000096.JPG,1,NA,NA,SQUIRRELGRAY
51,31428348,11_13_BC_000100.JPG,11_13_BC_000101.JPG,11_13_BC_000102.JPG,1,NA,NA,SQUIRRELGRAY
52,31428349,11_13_BC_000103.JPG,11_13_BC_000104.JPG,11_13_BC_000105.JPG,1,NA,NA,NOTHINGHERE
53,31428350,11_13_BC_000106.JPG,11_13_BC_000107.JPG,11_13_BC_000108.JPG,1,NA,NA,NOTHINGHERE
54,31428351,11_13_BC_000109.JPG,11_13_BC_000110.JPG,11_13_BC_000111.JPG,1,NA,NA,SQUIRRELGRAY
55,31428353,11_13_BC_000115.JPG,11_13_BC_000116.JPG,11_13_BC_000117.JPG,1,NA,NA,PORCUPINE
56,31428354,11_13_BC_000121.JPG,11_13_BC_000122.JPG,11_13_BC_000123.JPG,1,NA,NA,SQUIRRELGRAY
57,31428356,11_13_BC_000127.JPG,11_13_BC_000128.JPG,11_13_BC_000129.JPG,1,NA,NA,NOTHINGHERE
58,31428357,11_13_BC_000130.JPG,11_13_BC_000131.JPG,11_13_BC_000132.JPG,1,NA,NA,SQUIRRELGRAY
59,31428358,11_13_BC_000133.JPG,11_13_BC_000134.JPG,11_13_BC_000135.JPG,1,NA,NA,SQUIRRELGRAY
60,31428359,11_13_BC_000136.JPG,11_13_BC_000137.JPG,11_13_BC_000138.JPG,1,NA,NA,NOTHINGHERE
61,31428360,11_13_BC_000139.JPG,11_13_BC_000140.JPG,11_13_BC_000141.JPG,1,NA,NA,TURKEY
62,31428362,11_13_BC_000145.JPG,11_13_BC_000146.JPG,11_13_BC_000147.JPG,1,NA,NA,BOBCAT
63,31428363,11_13_BC_000148.JPG,11_13_BC_000149.JPG,11_13_BC_000150.JPG,1,NA,NA,PORCUPINE
64,31428365,11_13_BC_000154.JPG,11_13_BC_000155.JPG,11_13_BC_000156.JPG,1,NA,NA,SQUIRRELGRAY
65,31428366,11_13_BC_000157.JPG,11_13_BC_000158.JPG,11_13_BC_000159.JPG,1,NA,NA,NOTHINGHERE
66,31428367,11_13_BC_000160.JPG,11_13_BC_000161.JPG,11_13_BC_000162.JPG,1,NA,NA,NOTHINGHERE
67,31428371,11_13_BC_000172.JPG,11_13_BC_000173.JPG,11_13_BC_000174.JPG,1,NA,NA,SQUIRRELGRAY
68,31428372,11_13_BC_000175.JPG,11_13_BC_000176.JPG,11_13_BC_000177.JPG,1,NA,NA,SQUIRRELGRAY
69,31428373,11_13_BC_000178.JPG,11_13_BC_000179.JPG,11_13_BC_000180.JPG,1,NA,NA,GROUSERUFFED
70,31428375,11_13_BC_000184.JPG,11_13_BC_000185.JPG,11_13_BC_000186.JPG,1,NA,NA,SQUIRRELGRAY
71,31428376,11_13_BC_000187.JPG,11_13_BC_000188.JPG,11_13_BC_000189.JPG,1,NA,NA,SQUIRRELGRAY
72,31428377,11_13_BC_000190.JPG,11_13_BC_000191.JPG,11_13_BC_000192.JPG,1,NA,NA,SQUIRRELGRAY
73,31428378,11_13_BC_000193.JPG,11_13_BC_000194.JPG,11_13_BC_000195.JPG,1,NA,NA,NOTHINGHERE
74,31428379,11_13_BC_000196.JPG,11_13_BC_000197.JPG,11_13_BC_000198.JPG,1,NA,NA,NOTHINGHERE
75,31428380,11_13_BC_000199.JPG,11_13_BC_000200.JPG,11_13_BC_000201.JPG,1,NA,NA,SQUIRRELGRAY
76,31428381,11_13_BC_000202.JPG,11_13_BC_000203.JPG,11_13_BC_000204.JPG,1,NA,NA,SQUIRRELGRAY
77,31428383,11_13_BC_000208.JPG,11_13_BC_000209.JPG,11_13_BC_000210.JPG,1,NA,NA,DEERWHITETAILED
78,31428384,11_13_BC_000211.JPG,11_13_BC_000212.JPG,11_13_BC_000213.JPG,1,NA,NA,DEERWHITETAILED
79,31428385,11_13_BC_000214.JPG,11_13_BC_000215.JPG,11_13_BC_000216.JPG,1,NA,NA,DEERWHITETAILED
80,31428386,11_13_BC_000217.JPG,11_13_BC_000218.JPG,11_13_BC_000219.JPG,1,NA,NA,DEERWHITETAILED
81,31428388,11_13_BC_000223.JPG,11_13_BC_000224.JPG,11_13_BC_000225.JPG,1,NA,NA,SQUIRRELGRAY
82,31428389,11_13_BC_000226.JPG,11_13_BC_000227.JPG,11_13_BC_000228.JPG,1,NA,NA,NOTHINGHERE
83,31428392,11_13_BC_000235.JPG,11_13_BC_000236.JPG,11_13_BC_000237.JPG,1,NA,NA,SOMETHINGHERE
84,31428394,11_13_BC_000241.JPG,11_13_BC_000242.JPG,11_13_BC_000243.JPG,1,NA,NA,SQUIRRELGRAY
85,31428395,11_13_BC_000244.JPG,11_13_BC_000245.JPG,11_13_BC_000246.JPG,1,NA,NA,NOTHINGHERE
86,31428396,11_13_BC_000247.JPG,11_13_BC_000248.JPG,11_13_BC_000249.JPG,1,NA,NA,NOTHINGHERE
87,31428397,11_13_BC_000250.JPG,11_13_BC_000251.JPG,11_13_BC_000252.JPG,1,NA,NA,SQUIRRELGRAY
88,31428398,11_13_BC_000253.JPG,11_13_BC_000254.JPG,11_13_BC_000255.JPG,1,NA,NA,SQUIRRELGRAY
89,31428399,11_13_BC_000256.JPG,11_13_BC_000257.JPG,11_13_BC_000258.JPG,1,NA,NA,SQUIRRELGRAY
90,31428400,11_13_BC_000259.JPG,11_13_BC_000260.JPG,11_13_BC_000261.JPG,1,NA,NA,SQUIRRELGRAY
91,31428401,11_13_BC_000262.JPG,11_13_BC_000263.JPG,11_13_BC_000264.JPG,1,NA,NA,NOTHINGHERE
92,31428402,11_13_BC_000265.JPG,11_13_BC_000266.JPG,11_13_BC_000267.JPG,1,NA,NA,NOTHINGHERE
93,31428403,11_13_BC_000268.JPG,11_13_BC_000269.JPG,11_13_BC_000270.JPG,1,NA,NA,NOTHINGHERE
94,31428404,11_13_BC_000271.JPG,11_13_BC_000272.JPG,11_13_BC_000273.JPG,1,NA,NA,NOTHINGHERE
95,31428405,11_13_BC_000274.JPG,11_13_BC_000275.JPG,11_13_BC_000276.JPG,1,NA,NA,NOTHINGHERE
96,31428406,11_13_BC_000277.JPG,11_13_BC_000278.JPG,11_13_BC_000279.JPG,1,NA,NA,NOTHINGHERE
97,31428407,11_13_BC_000280.JPG,11_13_BC_000281.JPG,11_13_BC_000282.JPG,1,NA,NA,NOTHINGHERE
98,31428408,11_13_BC_000283.JPG,11_13_BC_000284.JPG,11_13_BC_000285.JPG,1,NA,NA,NOTHINGHERE
99,31428411,14_22_DON_000007.JPG,14_22_DON_000008.JPG,14_22_DON_000009.JPG,1,NA,NA,NOTHINGHERE
100,31428412,14_22_DON_000010.JPG,14_22_DON_000011.JPG,14_22_DON_000012.JPG,1,NA,NA,NOTHINGHERE
101,31428414,14_22_DON_000016.JPG,14_22_DON_000017.JPG,14_22_DON_000018.JPG,1,NA,NA,DEERWHITETAILED
102,31428415,14_22_DON_000019.JPG,14_22_DON_000020.JPG,14_22_DON_000021.JPG,1,NA,NA,DEERWHITETAILED
103,31428416,14_22_DON_000022.JPG,14_22_DON_000023.JPG,14_22_DON_000024.JPG,1,NA,NA,NOTHINGHERE
104,31428417,14_22_DON_000025.JPG,14_22_DON_000026.JPG,14_22_DON_000027.JPG,1,NA,NA,DEERWHITETAILED
105,31428418,14_22_DON_000028.JPG,14_22_DON_000029.JPG,14_22_DON_000030.JPG,1,NA,NA,DEERWHITETAILED
106,31428419,14_22_DON_000031.JPG,14_22_DON_000032.JPG,14_22_DON_000033.JPG,1,NA,NA,DEERWHITETAILED
107,31428420,14_22_DON_000034.JPG,14_22_DON_000035.JPG,14_22_DON_000036.JPG,1,NA,NA,DEERWHITETAILED
108,31428421,14_22_DON_000037.JPG,14_22_DON_000038.JPG,14_22_DON_000039.JPG,1,NA,NA,DEERWHITETAILED
109,31428422,14_22_DON_000040.JPG,14_22_DON_000041.JPG,14_22_DON_000042.JPG,1,NA,NA,DEERWHITETAILED
110,31428423,14_22_DON_000043.JPG,14_22_DON_000044.JPG,14_22_DON_000045.JPG,1,NA,NA,NOTHINGHERE
111,31428424,14_22_DON_000046.JPG,14_22_DON_000047.JPG,14_22_DON_000048.JPG,1,NA,NA,DEERWHITETAILED
112,31428425,14_22_DON_000049.JPG,14_22_DON_000050.JPG,14_22_DON_000051.JPG,1,NA,NA,DEERWHITETAILED
113,31428426,14_22_DON_000052.JPG,14_22_DON_000053.JPG,14_22_DON_000054.JPG,1,NA,NA,DEERWHITETAILED
114,31428427,14_22_DON_000055.JPG,14_22_DON_000056.JPG,14_22_DON_000057.JPG,1,NA,NA,DEERWHITETAILED
115,31428428,14_22_DON_000058.JPG,14_22_DON_000059.JPG,14_22_DON_000060.JPG,1,NA,NA,DEERWHITETAILED
116,31428429,14_22_DON_000061.JPG,14_22_DON_000062.JPG,14_22_DON_000063.JPG,1,NA,NA,DEERWHITETAILED
117,31428431,14_22_DON_000067.JPG,14_22_DON_000068.JPG,14_22_DON_000069.JPG,1,NA,NA,DEERWHITETAILED
118,31428432,14_22_DON_000070.JPG,14_22_DON_000071.JPG,14_22_DON_000072.JPG,1,NA,NA,RACCOON
119,31428434,14_22_DON_000076.JPG,14_22_DON_000077.JPG,14_22_DON_000078.JPG,1,NA,NA,NOTHINGHERE
120,31428435,14_22_DON_000079.JPG,14_22_DON_000080.JPG,14_22_DON_000081.JPG,1,NA,NA,NOTHINGHERE
121,31428436,14_22_DON_000082.JPG,14_22_DON_000083.JPG,14_22_DON_000084.JPG,1,NA,NA,NOTHINGHERE
122,31428437,14_22_DON_000085.JPG,14_22_DON_000086.JPG,14_22_DON_000087.JPG,1,NA,NA,COYOTE
123,31428438,14_22_DON_000088.JPG,14_22_DON_000089.JPG,14_22_DON_000090.JPG,1,NA,NA,DEERWHITETAILED
124,31428439,14_22_DON_000091.JPG,14_22_DON_000092.JPG,14_22_DON_000093.JPG,1,NA,NA,NOTHINGHERE
125,31428440,14_22_DON_000094.JPG,14_22_DON_000095.JPG,14_22_DON_000096.JPG,1,NA,NA,DEERWHITETAILED
126,31428441,14_22_DON_000097.JPG,14_22_DON_000098.JPG,14_22_DON_000099.JPG,1,NA,NA,DEERWHITETAILED
127,31428443,14_22_DON_000103.JPG,14_22_DON_000104.JPG,14_22_DON_000105.JPG,1,NA,NA,NOTHINGHERE
128,31428444,14_22_DON_000106.JPG,14_22_DON_000107.JPG,14_22_DON_000108.JPG,1,NA,NA,DEERWHITETAILED
129,31428445,14_22_DON_000109.JPG,14_22_DON_000110.JPG,14_22_DON_000111.JPG,1,NA,NA,GROUSERUFFED
130,31428447,14_22_DON_000115.JPG,14_22_DON_000116.JPG,14_22_DON_000117.JPG,1,NA,NA,NOTHINGHERE
131,31428449,14_22_DON_000121.JPG,14_22_DON_000122.JPG,14_22_DON_000123.JPG,1,NA,NA,HUMAN
132,31428450,15_14_DEG_000002.JPG,15_14_DEG_000003.JPG,15_14_DEG_000001.JPG,1,NA,NA,DEERWHITETAILED
133,31428451,15_14_DEG_000004.JPG,15_14_DEG_000005.JPG,15_14_DEG_000006.JPG,1,NA,NA,DEERWHITETAILED
134,31428452,15_14_DEG_000007.JPG,15_14_DEG_000008.JPG,15_14_DEG_000009.JPG,1,NA,NA,DEERWHITETAILED
135,31428453,15_14_DEG_000010.JPG,15_14_DEG_000011.JPG,15_14_DEG_000012.JPG,1,NA,NA,DEERWHITETAILED
136,31428454,15_14_DEG_000013.JPG,15_14_DEG_000014.JPG,15_14_DEG_000015.JPG,1,NA,NA,HUMAN
137,31428455,15_14_DEG_000016.JPG,15_14_DEG_000017.JPG,15_14_DEG_000018.JPG,1,NA,NA,DEERWHITETAILED
138,31428456,15_14_DEG_000019.JPG,15_14_DEG_000020.JPG,15_14_DEG_000021.JPG,1,NA,NA,HUMAN
139,31428457,15_14_DEG_000022.JPG,15_14_DEG_000023.JPG,15_14_DEG_000024.JPG,1,NA,NA,DEERWHITETAILED
140,31428458,15_14_DEG_000025.JPG,15_14_DEG_000026.JPG,15_14_DEG_000027.JPG,1,NA,NA,DEERWHITETAILED
141,31428459,15_14_DEG_000028.JPG,15_14_DEG_000029.JPG,15_14_DEG_000030.JPG,1,NA,NA,NOTHINGHERE
142,31428461,15_14_DEG_000034.JPG,15_14_DEG_000035.JPG,15_14_DEG_000036.JPG,1,NA,NA,DEERWHITETAILED
143,31428462,15_14_DEG_000037.JPG,15_14_DEG_000038.JPG,15_14_DEG_000039.JPG,1,NA,NA,DEERWHITETAILED
144,31428463,15_14_DEG_000040.JPG,15_14_DEG_000041.JPG,15_14_DEG_000042.JPG,1,NA,NA,DEERWHITETAILED
145,31428464,15_14_DEG_000043.JPG,15_14_DEG_000044.JPG,NA,1,NA,NA,DEERWHITETAILED
146,31428466,15_14_DEG_000049.JPG,15_14_DEG_000050.JPG,15_14_DEG_000051.JPG,1,NA,NA,DEERWHITETAILED
147,31428469,15_14_DEG_000058.JPG,15_14_DEG_000059.JPG,15_14_DEG_000060.JPG,1,NA,NA,DEERWHITETAILED
148,31428470,15_14_DEG_000061.JPG,15_14_DEG_000062.JPG,15_14_DEG_000063.JPG,1,NA,NA,DEERWHITETAILED
149,31428471,15_14_DEG_000064.JPG,15_14_DEG_000065.JPG,15_14_DEG_000066.JPG,1,NA,NA,DEERWHITETAILED
150,31428472,15_14_DEG_000067.JPG,15_14_DEG_000068.JPG,15_14_DEG_000069.JPG,1,NA,NA,DEERWHITETAILED
151,31428473,15_14_DEG_000070.JPG,15_14_DEG_000071.JPG,15_14_DEG_000072.JPG,1,NA,NA,NOTHINGHERE
152,31428474,15_14_DEG_000073.JPG,15_14_DEG_000074.JPG,15_14_DEG_000075.JPG,1,NA,NA,DEERWHITETAILED
153,31428475,15_14_DEG_000076.JPG,15_14_DEG_000077.JPG,15_14_DEG_000078.JPG,1,NA,NA,DEERWHITETAILED
154,31428476,15_14_DEG_000079.JPG,15_14_DEG_000080.JPG,15_14_DEG_000081.JPG,1,NA,NA,DEERWHITETAILED
155,31428477,15_14_DEG_000082.JPG,15_14_DEG_000083.JPG,15_14_DEG_000084.JPG,1,NA,NA,DEERWHITETAILED
156,31428478,15_14_DEG_000085.JPG,15_14_DEG_000086.JPG,15_14_DEG_000087.JPG,1,NA,NA,DEERWHITETAILED
157,31428479,15_14_DEG_000088.JPG,15_14_DEG_000089.JPG,15_14_DEG_000090.JPG,1,NA,NA,DEERWHITETAILED
158,31428480,15_14_DEG_000091.JPG,15_14_DEG_000092.JPG,15_14_DEG_000093.JPG,1,NA,NA,DEERWHITETAILED
159,31428481,15_14_DEG_000094.JPG,15_14_DEG_000095.JPG,15_14_DEG_000096.JPG,1,NA,NA,DEERWHITETAILED
160,31428482,15_14_DEG_000097.JPG,15_14_DEG_000098.JPG,15_14_DEG_000099.JPG,1,NA,NA,DEERWHITETAILED
161,31428483,15_14_DEG_000100.JPG,15_14_DEG_000101.JPG,15_14_DEG_000102.JPG,1,NA,NA,DEERWHITETAILED
162,31428484,15_14_DEG_000103.JPG,15_14_DEG_000104.JPG,15_14_DEG_000105.JPG,1,NA,NA,DEERWHITETAILED
163,31428485,15_14_DEG_000106.JPG,15_14_DEG_000107.JPG,NA,1,NA,NA,COYOTE
164,31428486,15_14_DEG_000109.JPG,15_14_DEG_000110.JPG,15_14_DEG_000111.JPG,1,NA,NA,DEERWHITETAILED
165,31428487,15_14_DEG_000112.JPG,15_14_DEG_000113.JPG,15_14_DEG_000114.JPG,1,NA,NA,DEERWHITETAILED
166,31428489,15_14_DEG_000121.JPG,15_14_DEG_000122.JPG,15_14_DEG_000123.JPG,1,NA,NA,DEERWHITETAILED
167,31428490,15_14_DEG_000124.JPG,15_14_DEG_000125.JPG,15_14_DEG_000126.JPG,1,NA,NA,DEERWHITETAILED
168,31428491,15_14_DEG_000127.JPG,15_14_DEG_000128.JPG,15_14_DEG_000129.JPG,1,NA,NA,TURKEY
169,31428492,15_14_DEG_000130.JPG,15_14_DEG_000131.JPG,15_14_DEG_000132.JPG,1,NA,NA,SOMETHINGHERE
170,31428493,15_14_DEG_000133.JPG,15_14_DEG_000134.JPG,15_14_DEG_000135.JPG,1,NA,NA,DEERWHITETAILED
171,31428494,15_14_DEG_000139.JPG,15_14_DEG_000140.JPG,15_14_DEG_000141.JPG,1,NA,NA,DEERWHITETAILED
172,31428495,15_14_DEG_000142.JPG,15_14_DEG_000143.JPG,15_14_DEG_000144.JPG,1,NA,NA,DEERWHITETAILED
173,31428496,15_14_DEG_000145.JPG,15_14_DEG_000146.JPG,15_14_DEG_000147.JPG,1,NA,NA,DEERWHITETAILED
174,31428497,15_14_DEG_000148.JPG,15_14_DEG_000149.JPG,15_14_DEG_000150.JPG,1,NA,NA,NOTHINGHERE
175,31428498,15_14_DEG_000151.JPG,15_14_DEG_000152.JPG,15_14_DEG_000153.JPG,1,NA,NA,DEERWHITETAILED
176,31428500,15_14_DEG_000157.JPG,15_14_DEG_000158.JPG,15_14_DEG_000159.JPG,1,NA,NA,DEERWHITETAILED
177,31428501,15_14_DEG_000160.JPG,15_14_DEG_000161.JPG,15_14_DEG_000162.JPG,1,NA,NA,DEERWHITETAILED
178,31428502,15_14_DEG_000163.JPG,15_14_DEG_000164.JPG,15_14_DEG_000165.JPG,1,NA,NA,DEERWHITETAILED
179,31428503,15_14_DEG_000166.JPG,15_14_DEG_000167.JPG,15_14_DEG_000168.JPG,1,NA,NA,NOTHINGHERE
180,31428504,15_14_DEG_000169.JPG,15_14_DEG_000170.JPG,15_14_DEG_000171.JPG,1,NA,NA,DEERWHITETAILED
181,31428505,15_14_DEG_000172.JPG,15_14_DEG_000173.JPG,15_14_DEG_000174.JPG,1,NA,NA,DEERWHITETAILED
182,31428506,15_14_DEG_000175.JPG,15_14_DEG_000176.JPG,15_14_DEG_000177.JPG,1,NA,NA,DEERWHITETAILED
183,31428507,15_14_DEG_000178.JPG,15_14_DEG_000179.JPG,15_14_DEG_000180.JPG,1,NA,NA,DEERWHITETAILED
184,31428508,15_14_DEG_000181.JPG,15_14_DEG_000182.JPG,15_14_DEG_000183.JPG,1,NA,NA,DEERWHITETAILED
185,31428509,15_14_DEG_000184.JPG,15_14_DEG_000185.JPG,15_14_DEG_000186.JPG,1,NA,NA,DEERWHITETAILED
186,31428510,15_14_DEG_000187.JPG,15_14_DEG_000188.JPG,15_14_DEG_000189.JPG,1,NA,NA,DEERWHITETAILED
187,31428511,15_14_DEG_000190.JPG,15_14_DEG_000191.JPG,15_14_DEG_000192.JPG,1,NA,NA,DEERWHITETAILED
188,31428512,15_14_DEG_000193.JPG,15_14_DEG_000194.JPG,15_14_DEG_000195.JPG,1,NA,NA,DEERWHITETAILED
189,31428514,15_14_DEG_000199.JPG,15_14_DEG_000200.JPG,15_14_DEG_000201.JPG,1,NA,NA,DEERWHITETAILED
190,31428515,15_14_DEG_000202.JPG,15_14_DEG_000203.JPG,15_14_DEG_000204.JPG,1,NA,NA,DEERWHITETAILED
191,31428516,15_14_DEG_000205.JPG,15_14_DEG_000206.JPG,15_14_DEG_000207.JPG,1,NA,NA,NOTHINGHERE
192,31428517,15_14_DEG_000208.JPG,15_14_DEG_000209.JPG,15_14_DEG_000210.JPG,1,NA,NA,DEERWHITETAILED
193,31428518,15_14_DEG_000211.JPG,15_14_DEG_000212.JPG,15_14_DEG_000213.JPG,1,NA,NA,NOTHINGHERE
194,31428519,15_14_DEG_000214.JPG,15_14_DEG_000215.JPG,15_14_DEG_000216.JPG,1,NA,NA,DEERWHITETAILED
195,31428521,15_14_DEG_000220.JPG,15_14_DEG_000221.JPG,15_14_DEG_000222.JPG,1,NA,NA,DEERWHITETAILED
196,31428522,15_14_DEG_000223.JPG,15_14_DEG_000224.JPG,15_14_DEG_000225.JPG,1,NA,NA,DEERWHITETAILED
197,31428523,15_14_DEG_000226.JPG,15_14_DEG_000227.JPG,15_14_DEG_000228.JPG,1,NA,NA,DEERWHITETAILED
198,31428524,15_14_DEG_000229.JPG,15_14_DEG_000230.JPG,15_14_DEG_000231.JPG,1,NA,NA,DEERWHITETAILED
199,31428525,15_14_DEG_000232.JPG,15_14_DEG_000233.JPG,15_14_DEG_000234.JPG,1,NA,NA,DEERWHITETAILED
200,31428526,15_14_DEG_000235.JPG,15_14_DEG_000236.JPG,15_14_DEG_000237.JPG,1,NA,NA,DEERWHITETAILED
201,31428527,15_14_DEG_000238.JPG,15_14_DEG_000239.JPG,15_14_DEG_000240.JPG,1,NA,NA,DEERWHITETAILED
202,31428528,15_14_DEG_000241.JPG,15_14_DEG_000242.JPG,15_14_DEG_000243.JPG,1,NA,NA,DEERWHITETAILED
203,31428529,17_24_BC_000001.JPG,17_24_BC_000002.JPG,17_24_BC_000003.JPG,1,NA,NA,DEERWHITETAILED
204,31428530,17_24_BC_000004.JPG,17_24_BC_000005.JPG,17_24_BC_000006.JPG,1,NA,NA,DEERWHITETAILED
205,31428531,17_24_BC_000007.JPG,17_24_BC_000008.JPG,17_24_BC_000009.JPG,1,NA,NA,DEERWHITETAILED
206,31428532,17_24_BC_000010.JPG,17_24_BC_000011.JPG,17_24_BC_000012.JPG,1,NA,NA,DEERWHITETAILED
207,31428533,17_24_BC_000013.JPG,17_24_BC_000014.JPG,17_24_BC_000015.JPG,1,NA,NA,DEERWHITETAILED
208,31428534,17_24_BC_000016.JPG,17_24_BC_000017.JPG,17_24_BC_000018.JPG,1,NA,NA,DEERWHITETAILED
209,31428535,17_24_BC_000019.JPG,17_24_BC_000020.JPG,17_24_BC_000021.JPG,1,NA,NA,DEERWHITETAILED
210,31428536,17_24_BC_000022.JPG,17_24_BC_000023.JPG,17_24_BC_000024.JPG,1,NA,NA,NOTHINGHERE
211,31428537,17_24_BC_000025.JPG,17_24_BC_000026.JPG,17_24_BC_000027.JPG,1,NA,NA,DEERWHITETAILED
212,31428538,17_24_BC_000028.JPG,17_24_BC_000029.JPG,17_24_BC_000030.JPG,1,NA,NA,SQUIRRELGRAY
213,31428539,17_24_BC_000031.JPG,17_24_BC_000032.JPG,17_24_BC_000033.JPG,1,NA,NA,SQUIRRELGRAY
214,31428540,17_24_BC_000034.JPG,17_24_BC_000035.JPG,17_24_BC_000036.JPG,1,NA,NA,SQUIRRELGRAY
215,31428541,17_24_BC_000037.JPG,17_24_BC_000038.JPG,17_24_BC_000039.JPG,1,NA,NA,SQUIRRELGRAY
216,31428542,17_24_BC_000040.JPG,17_24_BC_000041.JPG,17_24_BC_000042.JPG,1,NA,NA,DEERWHITETAILED
217,31428543,17_24_BC_000043.JPG,17_24_BC_000044.JPG,17_24_BC_000045.JPG,1,NA,NA,DEERWHITETAILED
218,31428544,17_24_BC_000046.JPG,17_24_BC_000047.JPG,17_24_BC_000048.JPG,1,NA,NA,DEERWHITETAILED
219,31428545,17_24_BC_000049.JPG,17_24_BC_000050.JPG,17_24_BC_000051.JPG,1,NA,NA,NOTHINGHERE
220,31428546,17_24_BC_000052.JPG,17_24_BC_000053.JPG,17_24_BC_000054.JPG,1,NA,NA,SOMETHINGHERE
221,31428548,17_24_BC_000058.JPG,17_24_BC_000059.JPG,17_24_BC_000060.JPG,1,NA,NA,NOTHINGHERE
222,31428549,17_24_BC_000061.JPG,17_24_BC_000062.JPG,17_24_BC_000063.JPG,1,NA,NA,SQUIRRELGRAY
223,31428550,17_24_BC_000064.JPG,17_24_BC_000065.JPG,17_24_BC_000066.JPG,1,NA,NA,SQUIRRELGRAY
224,31428553,17_24_BC_000073.JPG,17_24_BC_000074.JPG,17_24_BC_000075.JPG,1,NA,NA,SQUIRRELGRAY
225,31428554,17_24_BC_000076.JPG,17_24_BC_000077.JPG,17_24_BC_000078.JPG,1,NA,NA,DEERWHITETAILED
226,31428555,17_24_BC_000079.JPG,17_24_BC_000080.JPG,17_24_BC_000081.JPG,1,NA,NA,DEERWHITETAILED
227,31428556,17_24_BC_000082.JPG,17_24_BC_000083.JPG,17_24_BC_000084.JPG,1,NA,NA,DEERWHITETAILED
228,31428557,17_24_BC_000085.JPG,17_24_BC_000086.JPG,17_24_BC_000087.JPG,1,NA,NA,DEERWHITETAILED
229,31428559,17_24_BC_000091.JPG,17_24_BC_000092.JPG,17_24_BC_000093.JPG,1,NA,NA,SQUIRRELGRAY
230,31428560,17_24_BC_000094.JPG,17_24_BC_000095.JPG,17_24_BC_000096.JPG,1,NA,NA,SQUIRRELGRAY
231,31428561,17_24_BC_000097.JPG,17_24_BC_000098.JPG,17_24_BC_000099.JPG,1,NA,NA,SQUIRRELGRAY
232,31428563,17_24_BC_000103.JPG,17_24_BC_000104.JPG,17_24_BC_000105.JPG,1,NA,NA,DEERWHITETAILED
233,31428564,17_24_BC_000106.JPG,17_24_BC_000107.JPG,17_24_BC_000108.JPG,1,NA,NA,DEERWHITETAILED
234,31428565,17_24_BC_000109.JPG,17_24_BC_000110.JPG,17_24_BC_000111.JPG,1,NA,NA,DEERWHITETAILED
235,31428566,17_24_BC_000112.JPG,17_24_BC_000113.JPG,17_24_BC_000114.JPG,1,NA,NA,DEERWHITETAILED
236,31428567,17_24_BC_000115.JPG,17_24_BC_000116.JPG,17_24_BC_000117.JPG,1,NA,NA,NOTHINGHERE
237,31428568,17_24_BC_000118.JPG,17_24_BC_000119.JPG,17_24_BC_000120.JPG,1,NA,NA,DEERWHITETAILED
238,31428569,17_24_BC_000121.JPG,17_24_BC_000122.JPG,17_24_BC_000123.JPG,1,NA,NA,DEERWHITETAILED
239,31428570,17_24_BC_000124.JPG,17_24_BC_000125.JPG,17_24_BC_000126.JPG,1,NA,NA,DEERWHITETAILED
240,31428571,17_24_BC_000127.JPG,17_24_BC_000128.JPG,17_24_BC_000129.JPG,1,NA,NA,DEERWHITETAILED
241,31428572,17_24_BC_000130.JPG,17_24_BC_000131.JPG,17_24_BC_000132.JPG,1,NA,NA,DEERWHITETAILED
242,31428573,17_24_BC_000133.JPG,17_24_BC_000134.JPG,17_24_BC_000135.JPG,1,NA,NA,DEERWHITETAILED
243,31428574,17_24_BC_000136.JPG,17_24_BC_000137.JPG,17_24_BC_000138.JPG,1,NA,NA,DEERWHITETAILED
244,31428575,17_24_BC_000139.JPG,17_24_BC_000140.JPG,17_24_BC_000141.JPG,1,NA,NA,DEERWHITETAILED
245,31428576,17_24_BC_000142.JPG,17_24_BC_000143.JPG,17_24_BC_000144.JPG,1,NA,NA,DEERWHITETAILED
246,31428577,17_24_BC_000145.JPG,17_24_BC_000146.JPG,17_24_BC_000147.JPG,1,NA,NA,DEERWHITETAILED
247,31428578,17_24_BC_000148.JPG,17_24_BC_000149.JPG,17_24_BC_000150.JPG,1,NA,NA,SQUIRRELGRAY
248,31428579,17_24_BC_000151.JPG,17_24_BC_000152.JPG,17_24_BC_000153.JPG,1,NA,NA,NOTHINGHERE
249,31428580,17_24_BC_000154.JPG,17_24_BC_000155.JPG,17_24_BC_000156.JPG,1,NA,NA,NOTHINGHERE
250,31428581,17_24_BC_000157.JPG,17_24_BC_000158.JPG,17_24_BC_000159.JPG,1,NA,NA,DEERWHITETAILED
251,31428582,17_24_BC_000160.JPG,17_24_BC_000161.JPG,17_24_BC_000162.JPG,1,NA,NA,SQUIRRELGRAY
252,31428583,17_24_BC_000163.JPG,17_24_BC_000164.JPG,17_24_BC_000165.JPG,1,NA,NA,SQUIRRELGRAY
253,31428584,17_24_BC_000166.JPG,17_24_BC_000167.JPG,17_24_BC_000168.JPG,1,NA,NA,NOTHINGHERE
254,31428585,17_24_BC_000169.JPG,17_24_BC_000170.JPG,17_24_BC_000171.JPG,1,NA,NA,DEERWHITETAILED
255,31428586,17_24_BC_000172.JPG,17_24_BC_000173.JPG,17_24_BC_000174.JPG,1,NA,NA,DEERWHITETAILED
256,31428587,17_24_BC_000175.JPG,17_24_BC_000176.JPG,17_24_BC_000177.JPG,1,NA,NA,DEERWHITETAILED
257,31428588,17_24_BC_000178.JPG,17_24_BC_000179.JPG,17_24_BC_000180.JPG,1,NA,NA,DEERWHITETAILED
258,31428589,17_24_BC_000181.JPG,17_24_BC_000182.JPG,17_24_BC_000183.JPG,1,NA,NA,DEERWHITETAILED
259,31428590,17_24_BC_000184.JPG,17_24_BC_000185.JPG,17_24_BC_000186.JPG,1,NA,NA,DEERWHITETAILED
260,31428591,17_24_BC_000187.JPG,17_24_BC_000188.JPG,17_24_BC_000189.JPG,1,NA,NA,DEERWHITETAILED
261,31428592,17_24_BC_000190.JPG,17_24_BC_000191.JPG,17_24_BC_000192.JPG,1,NA,NA,NOTHINGHERE
262,31428594,17_24_BC_000196.JPG,17_24_BC_000197.JPG,17_24_BC_000198.JPG,1,NA,NA,NOTHINGHERE
263,31428595,17_24_BC_000199.JPG,17_24_BC_000200.JPG,17_24_BC_000201.JPG,1,NA,NA,SOMETHINGHERE
264,31428596,17_24_BC_000202.JPG,17_24_BC_000203.JPG,17_24_BC_000204.JPG,1,NA,NA,NOTHINGHERE
265,31428597,17_24_BC_000205.JPG,17_24_BC_000206.JPG,17_24_BC_000207.JPG,1,NA,NA,RACCOON
266,31428598,17_24_BC_000208.JPG,17_24_BC_000209.JPG,17_24_BC_000210.JPG,1,NA,NA,NOTHINGHERE
267,31428599,17_24_BC_000211.JPG,17_24_BC_000212.JPG,17_24_BC_000213.JPG,1,NA,NA,RACCOON
268,31428600,17_24_BC_000214.JPG,17_24_BC_000215.JPG,17_24_BC_000216.JPG,1,NA,NA,SQUIRRELGRAY
269,31428601,17_24_BC_000217.JPG,17_24_BC_000218.JPG,17_24_BC_000219.JPG,1,NA,NA,DEERWHITETAILED
270,31428602,17_24_BC_000220.JPG,17_24_BC_000221.JPG,17_24_BC_000222.JPG,1,NA,NA,DEERWHITETAILED
271,31428603,17_24_BC_000223.JPG,17_24_BC_000224.JPG,17_24_BC_000225.JPG,1,NA,NA,SQUIRRELGRAY
272,31428604,17_24_BC_000226.JPG,17_24_BC_000227.JPG,17_24_BC_000228.JPG,1,NA,NA,DEERWHITETAILED
273,31428605,17_24_BC_000229.JPG,17_24_BC_000230.JPG,17_24_BC_000231.JPG,1,NA,NA,NOTHINGHERE
274,31428608,17_24_BC_000238.JPG,17_24_BC_000239.JPG,17_24_BC_000240.JPG,1,NA,NA,DEERWHITETAILED
275,31428609,17_24_BC_000241.JPG,17_24_BC_000242.JPG,17_24_BC_000243.JPG,1,NA,NA,DEERWHITETAILED
276,31428610,17_24_BC_000244.JPG,17_24_BC_000245.JPG,17_24_BC_000246.JPG,1,NA,NA,DEERWHITETAILED
277,31428611,17_24_BC_000247.JPG,17_24_BC_000248.JPG,17_24_BC_000249.JPG,1,NA,NA,NOTHINGHERE
278,31428612,17_24_BC_000250.JPG,17_24_BC_000251.JPG,17_24_BC_000252.JPG,1,NA,NA,SQUIRRELGRAY
279,31428613,17_24_BC_000253.JPG,17_24_BC_000254.JPG,17_24_BC_000255.JPG,1,NA,NA,SQUIRRELGRAY
280,31428614,17_24_BC_000256.JPG,17_24_BC_000257.JPG,17_24_BC_000258.JPG,1,NA,NA,SQUIRRELGRAY
281,31428615,17_24_BC_000259.JPG,17_24_BC_000260.JPG,17_24_BC_000261.JPG,1,NA,NA,SQUIRRELGRAY
282,31428617,17_24_BC_000265.JPG,17_24_BC_000266.JPG,17_24_BC_000267.JPG,1,NA,NA,SQUIRRELGRAY
283,31428619,17_24_BC_000271.JPG,17_24_BC_000272.JPG,17_24_BC_000273.JPG,1,NA,NA,SQUIRRELGRAY
284,31428620,18_16_WHIP_000001.JPG,18_16_WHIP_000002.JPG,18_16_WHIP_000003.JPG,1,NA,NA,NOTHINGHERE
285,31428624,18_16_WHIP_000013.JPG,18_16_WHIP_000014.JPG,18_16_WHIP_000015.JPG,1,NA,NA,RACCOON
286,31428625,18_16_WHIP_000016.JPG,18_16_WHIP_000017.JPG,18_16_WHIP_000018.JPG,1,NA,NA,DEERWHITETAILED
287,31428626,18_16_WHIP_000019.JPG,18_16_WHIP_000020.JPG,18_16_WHIP_000021.JPG,1,NA,NA,DEERWHITETAILED
288,31428627,18_16_WHIP_000022.JPG,18_16_WHIP_000023.JPG,18_16_WHIP_000024.JPG,1,NA,NA,DEERWHITETAILED
289,31428628,18_16_WHIP_000025.JPG,18_16_WHIP_000026.JPG,18_16_WHIP_000027.JPG,1,NA,NA,DEERWHITETAILED
290,31428629,18_16_WHIP_000028.JPG,18_16_WHIP_000029.JPG,18_16_WHIP_000030.JPG,1,NA,NA,DEERWHITETAILED
291,31428630,18_16_WHIP_000031.JPG,18_16_WHIP_000032.JPG,18_16_WHIP_000033.JPG,1,NA,NA,DEERWHITETAILED
292,31428631,18_16_WHIP_000034.JPG,18_16_WHIP_000035.JPG,18_16_WHIP_000036.JPG,1,NA,NA,DEERWHITETAILED
293,31428632,18_16_WHIP_000037.JPG,18_16_WHIP_000038.JPG,18_16_WHIP_000039.JPG,1,NA,NA,DEERWHITETAILED
294,31428634,18_16_WHIP_000043.JPG,18_16_WHIP_000044.JPG,18_16_WHIP_000045.JPG,1,NA,NA,RACCOON
295,31428635,18_16_WHIP_000046.JPG,18_16_WHIP_000047.JPG,18_16_WHIP_000048.JPG,1,NA,NA,SOMETHINGHERE
296,31428636,18_16_WHIP_000049.JPG,18_16_WHIP_000050.JPG,18_16_WHIP_000051.JPG,1,NA,NA,DEERWHITETAILED
297,31428638,18_16_WHIP_000055.JPG,18_16_WHIP_000056.JPG,18_16_WHIP_000057.JPG,1,NA,NA,COYOTE
298,31428639,18_16_WHIP_000058.JPG,18_16_WHIP_000059.JPG,18_16_WHIP_000060.JPG,1,NA,NA,DEERWHITETAILED
299,31428640,18_16_WHIP_000061.JPG,18_16_WHIP_000062.JPG,18_16_WHIP_000063.JPG,1,NA,NA,DEERWHITETAILED
300,31428641,18_16_WHIP_000064.JPG,18_16_WHIP_000065.JPG,18_16_WHIP_000066.JPG,1,NA,NA,NOTHINGHERE
301,31428642,21_21_DON__0027.JPG,21_21_DON_0028.JPG,21_21_DON_0029.JPG,1,NA,NA,NOTHINGHERE
302,31428645,21_21_DON_0006.JPG,21_21_DON_0007.JPG,21_21_DON_0008.JPG,1,NA,NA,NOTHINGHERE
303,31428647,21_21_DON_0012.JPG,21_21_DON_0013.JPG,21_21_DON_0014.JPG,1,NA,NA,NOTHINGHERE
304,31428648,21_21_DON_0015.JPG,21_21_DON_0016.JPG,21_21_DON_0017.JPG,1,NA,NA,NOTHINGHERE
305,31428649,21_21_DON_0018.JPG,21_21_DON_0019.JPG,21_21_DON_0020.JPG,1,NA,NA,NOTHINGHERE
306,31428650,21_21_DON_0021.JPG,21_21_DON_0022.JPG,21_21_DON_0023.JPG,1,NA,NA,NOTHINGHERE
307,31428651,21_21_DON_0024.JPG,21_21_DON_0025.JPG,21_21_DON_0026.JPG,1,NA,NA,NOTHINGHERE
308,31428653,21_21_DON_0033.JPG,21_21_DON_0034.JPG,21_21_DON_0035.JPG,1,NA,NA,NOTHINGHERE
309,31428657,21_21_DON_0045.JPG,21_21_DON_0046.JPG,21_21_DON_0047.JPG,1,NA,NA,NOTHINGHERE
310,31428658,21_21_DON_0048.JPG,21_21_DON_0049.JPG,21_21_DON_0050.JPG,1,NA,NA,NOTHINGHERE
311,31428659,21_21_DON_0051.JPG,21_21_DON_0052.JPG,21_21_DON_0053.JPG,1,NA,NA,NOTHINGHERE
312,31428660,21_21_DON_0054.JPG,21_21_DON_0055.JPG,21_21_DON_0056.JPG,1,NA,NA,NOTHINGHERE
313,31428661,21_21_DON_0057.JPG,21_21_DON_0058.JPG,21_21_DON_0059.JPG,1,NA,NA,NOTHINGHERE
314,31428662,21_21_DON_0060.JPG,21_21_DON_0061.JPG,21_21_DON_0062.JPG,1,NA,NA,NOTHINGHERE
315,31428663,21_21_DON_0063.JPG,21_21_DON_0064.JPG,21_21_DON_0065.JPG,1,NA,NA,NOTHINGHERE
316,31428664,21_21_DON_0066.JPG,21_21_DON_0067.JPG,21_21_DON_0068.JPG,1,NA,NA,NOTHINGHERE
317,31428665,21_21_DON_0069.JPG,21_21_DON_0070.JPG,21_21_DON_0071.JPG,1,NA,NA,NOTHINGHERE
318,31428666,21_21_DON_0072.JPG,21_21_DON_0073.JPG,21_21_DON_0074.JPG,1,NA,NA,NOTHINGHERE
319,31428667,21_21_DON_0075.JPG,21_21_DON_0076.JPG,21_21_DON_0077.JPG,1,NA,NA,NOTHINGHERE
320,31428668,21_21_DON_0078.JPG,21_21_DON_0079.JPG,21_21_DON_0080.JPG,1,NA,NA,NOTHINGHERE
321,31428669,21_21_DON_0081.JPG,21_21_DON_0082.JPG,21_21_DON_0083.JPG,1,NA,NA,NOTHINGHERE
322,31428670,21_21_DON_0084.JPG,21_21_DON_0085.JPG,21_21_DON_0086.JPG,1,NA,NA,NOTHINGHERE
323,31428671,21_21_DON_0087.JPG,21_21_DON_0088.JPG,21_21_DON_0089.JPG,1,NA,NA,NOTHINGHERE
324,31428672,21_21_DON_0090.JPG,21_21_DON_0091.JPG,21_21_DON_0092.JPG,1,NA,NA,NOTHINGHERE
325,31428673,21_21_DON_0093.JPG,21_21_DON_0094.JPG,21_21_DON_0095.JPG,1,NA,NA,NOTHINGHERE
326,31428674,21_21_DON_0096.JPG,21_21_DON_0097.JPG,21_21_DON_0098.JPG,1,NA,NA,NOTHINGHERE
327,31428675,21_21_DON_0099.JPG,21_21_DON_0100.JPG,21_21_DON_0101.JPG,1,NA,NA,NOTHINGHERE
328,31428676,21_21_DON_0102.JPG,21_21_DON_0103.JPG,21_21_DON_0104.JPG,1,NA,NA,NOTHINGHERE
329,31428677,21_21_DON_0105.JPG,21_21_DON_0106.JPG,21_21_DON_0107.JPG,1,NA,NA,NOTHINGHERE
330,31428678,21_21_DON_0108.JPG,21_21_DON_0109.JPG,21_21_DON_0110.JPG,1,NA,NA,NOTHINGHERE
331,31428679,21_21_DON_0111.JPG,21_21_DON_0112.JPG,21_21_DON_0113.JPG,1,NA,NA,NOTHINGHERE
332,31428680,21_21_DON_0114.JPG,21_21_DON_0115.JPG,21_21_DON_0116.JPG,1,NA,NA,NOTHINGHERE
333,31428681,21_21_DON_0117.JPG,21_21_DON_0118.JPG,21_21_DON_0119.JPG,1,NA,NA,NOTHINGHERE
334,31428682,21_21_DON_0120.JPG,21_21_DON_0121.JPG,21_21_DON_0122.JPG,1,NA,NA,NOTHINGHERE
335,31428683,21_21_DON_0123.JPG,21_21_DON_0124.JPG,21_21_DON_0125.JPG,1,NA,NA,NOTHINGHERE
336,31428684,21_21_DON_0126.JPG,21_21_DON_0127.JPG,21_21_DON_0128.JPG,1,NA,NA,NOTHINGHERE
337,31428685,21_21_DON_0129.JPG,21_21_DON_0130.JPG,21_21_DON_0131.JPG,1,NA,NA,NOTHINGHERE
338,31428686,21_21_DON_0132.JPG,21_21_DON_0133.JPG,21_21_DON_0134.JPG,1,NA,NA,NOTHINGHERE
339,31428687,21_21_DON_0135.JPG,21_21_DON_0136.JPG,21_21_DON_0137.JPG,1,NA,NA,NOTHINGHERE
340,31428688,21_21_DON_0138.JPG,21_21_DON_0139.JPG,21_21_DON_0140.JPG,1,NA,NA,NOTHINGHERE
341,31428689,21_21_DON_0141.JPG,21_21_DON_0142.JPG,21_21_DON_0143.JPG,1,NA,NA,NOTHINGHERE
342,31428690,21_21_DON_0144.JPG,21_21_DON_0145.JPG,21_21_DON_0146.JPG,1,NA,NA,NOTHINGHERE
343,31428691,21_21_DON_0147.JPG,21_21_DON_0148.JPG,21_21_DON_0149.JPG,1,NA,NA,NOTHINGHERE
344,31428692,21_21_DON_0150.JPG,21_21_DON_0151.JPG,21_21_DON_0152.JPG,1,NA,NA,NOTHINGHERE
345,31428693,21_21_DON_0153.JPG,21_21_DON_0154.JPG,21_21_DON_0155.JPG,1,NA,NA,NOTHINGHERE
346,31428694,21_21_DON_0156.JPG,21_21_DON_0157.JPG,21_21_DON_0158.JPG,1,NA,NA,NOTHINGHERE
347,31428695,21_21_DON_0159.JPG,21_21_DON_0160.JPG,21_21_DON_0161.JPG,1,NA,NA,NOTHINGHERE
348,31428696,21_21_DON_0162.JPG,21_21_DON_0163.JPG,21_21_DON_0164.JPG,1,NA,NA,NOTHINGHERE
349,31428697,21_21_DON_0165.JPG,21_21_DON_0166.JPG,21_21_DON_0167.JPG,1,NA,NA,NOTHINGHERE
350,31428699,21_21_DON_0171.JPG,21_21_DON_0172.JPG,21_21_DON_0173.JPG,1,NA,NA,NOTHINGHERE
351,31428700,21_21_DON_0174.JPG,21_21_DON_0175.JPG,21_21_DON_0176.JPG,1,NA,NA,NOTHINGHERE
352,31428701,21_21_DON_0177.JPG,21_21_DON_0178.JPG,21_21_DON_0179.JPG,1,NA,NA,NOTHINGHERE
353,31428702,21_21_DON_0180.JPG,21_21_DON_0181.JPG,21_21_DON_0182.JPG,1,NA,NA,NOTHINGHERE
354,31428704,22_18_WF_0004.JPG,22_18_WF_0005.JPG,22_18_WF_0006.JPG,1,NA,NA,FISHER
355,31428705,22_18_WF_0007.JPG,22_18_WF_0008.JPG,22_18_WF_0009.JPG,1,NA,NA,SOMETHINGHERE
356,31428707,22_18_WF_0013.JPG,22_18_WF_0014.JPG,22_18_WF_0015.JPG,1,NA,NA,FISHER
357,31428708,22_18_WF_0016.JPG,22_18_WF_0017.JPG,22_18_WF_0018.JPG,1,NA,NA,FISHER
358,31428709,22_18_WF_0019.JPG,22_18_WF_0020.JPG,22_18_WF_0021.JPG,1,NA,NA,FISHER
359,31428710,22_18_WF_0022.JPG,22_18_WF_0023.JPG,22_18_WF_0024.JPG,1,NA,NA,DEERWHITETAILED
360,31428711,22_18_WF_0025.JPG,22_18_WF_0026.JPG,22_18_WF_0027.JPG,1,NA,NA,DEERWHITETAILED
361,31428712,22_18_WF_0028.JPG,22_18_WF_0029.JPG,22_18_WF_0030.JPG,1,NA,NA,DEERWHITETAILED
362,31428713,22_18_WF_0031.JPG,22_18_WF_0032.JPG,NA,1,NA,NA,DEERWHITETAILED
363,31428714,22_18_WF_0037.JPG,22_18_WF_0038.JPG,22_18_WF_0039.JPG,1,NA,NA,FISHER
364,31428715,22_18_WF_0040.JPG,22_18_WF_0041.JPG,22_18_WF_0042.JPG,1,NA,NA,DEERWHITETAILED
365,31428716,22_18_WF_0043.JPG,22_18_WF_0044.JPG,22_18_WF_0045.JPG,1,NA,NA,DEERWHITETAILED
366,31428717,22_18_WF_0046.JPG,22_18_WF_0047.JPG,22_18_WF_0048.JPG,1,NA,NA,DEERWHITETAILED
367,31428718,22_18_WF_0049.JPG,22_18_WF_0050.JPG,22_18_WF_0051.JPG,1,NA,NA,DEERWHITETAILED
368,31428719,22_18_WF_0052.JPG,22_18_WF_0053.JPG,22_18_WF_0054.JPG,1,NA,NA,FISHER
369,31428720,22_18_WF_0055.JPG,22_18_WF_0056.JPG,22_18_WF_0057.JPG,1,NA,NA,DEERWHITETAILED
370,31428721,22_18_WF_0058.JPG,22_18_WF_0059.JPG,22_18_WF_0060.JPG,1,NA,NA,DEERWHITETAILED
371,31428722,22_18_WF_0061.JPG,22_18_WF_0062.JPG,22_18_WF_0063.JPG,1,NA,NA,DEERWHITETAILED
372,31428724,22_18_WF_0067.JPG,22_18_WF_0068.JPG,22_18_WF_0069.JPG,1,NA,NA,DEERWHITETAILED
373,31428725,22_18_WF_0070.JPG,22_18_WF_0071.JPG,22_18_WF_0072.JPG,1,NA,NA,DEERWHITETAILED
374,31428726,22_18_WF_0073.JPG,22_18_WF_0074.JPG,22_18_WF_0075.JPG,1,NA,NA,FISHER
375,31428727,22_18_WF_0076.JPG,22_18_WF_0077.JPG,22_18_WF_0078.JPG,1,NA,NA,SOMETHINGHERE
376,31428728,22_18_WF_0079.JPG,22_18_WF_0080.JPG,22_18_WF_0081.JPG,1,NA,NA,DEERWHITETAILED
377,31428731,22_18_WF_0088.JPG,22_18_WF_0089.JPG,22_18_WF_0090.JPG,1,NA,NA,DEERWHITETAILED
378,31428732,22_18_WF_0091.JPG,22_18_WF_0092.JPG,22_18_WF_0093.JPG,1,NA,NA,DEERWHITETAILED
379,31428733,22_18_WF_0094.JPG,22_18_WF_0095.JPG,22_18_WF_0096.JPG,1,NA,NA,DEERWHITETAILED
380,31428734,22_18_WF_0097.JPG,22_18_WF_0098.JPG,22_18_WF_0099.JPG,1,NA,NA,DEERWHITETAILED
381,31428735,22_18_WF_0100.JPG,22_18_WF_0101.JPG,22_18_WF_0102.JPG,1,NA,NA,SOMETHINGHERE
382,31428736,22_18_WF_0103.JPG,22_18_WF_0104.JPG,22_18_WF_0105.JPG,1,NA,NA,DEERWHITETAILED
383,31428737,22_18_WF_0106.JPG,22_18_WF_0107.JPG,22_18_WF_0108.JPG,1,NA,NA,NOTHINGHERE
384,31428738,22_18_WF_0109.JPG,22_18_WF_0110.JPG,22_18_WF_0111.JPG,1,NA,NA,DEERWHITETAILED
385,31428739,22_18_WF_0112.JPG,22_18_WF_0113.JPG,22_18_WF_0114.JPG,1,NA,NA,FISHER
386,31428741,22_18_WF_0118.JPG,22_18_WF_0119.JPG,22_18_WF_0120.JPG,1,NA,NA,DEERWHITETAILED
387,31428742,22_18_WF_0121.JPG,22_18_WF_0122.JPG,22_18_WF_0123.JPG,1,NA,NA,DEERWHITETAILED
388,31428743,22_18_WF_0124.JPG,22_18_WF_0125.JPG,22_18_WF_0126.JPG,1,NA,NA,COYOTE
389,31428744,22_18_WF_0127.JPG,22_18_WF_0128.JPG,22_18_WF_0129.JPG,1,NA,NA,DEERWHITETAILED
390,31428745,22_18_WF_0130.JPG,22_18_WF_0131.JPG,22_18_WF_0132.JPG,1,NA,NA,DEERWHITETAILED
391,31428747,22_18_WF_0136.JPG,22_18_WF_0137.JPG,22_18_WF_0138.JPG,1,NA,NA,DEERWHITETAILED
392,31428748,22_18_WF_0139.JPG,22_18_WF_0140.JPG,22_18_WF_0141.JPG,1,NA,NA,DEERWHITETAILED
393,31428749,22_18_WF_0142.JPG,22_18_WF_0143.JPG,22_18_WF_0144.JPG,1,NA,NA,NOTHINGHERE
394,31428750,22_18_WF_0145.JPG,22_18_WF_0146.JPG,22_18_WF_0147.JPG,1,NA,NA,DEERWHITETAILED
395,31428751,22_18_WF_0148.JPG,22_18_WF_0149.JPG,22_18_WF_0150.JPG,1,NA,NA,DEERWHITETAILED
396,31428752,22_18_WF_0151.JPG,22_18_WF_0152.JPG,22_18_WF_0153.JPG,1,NA,NA,DEERWHITETAILED
397,31428753,22_18_WF_0154.JPG,22_18_WF_0155.JPG,22_18_WF_0156.JPG,1,NA,NA,DEERWHITETAILED
398,31428754,22_18_WF_0157.JPG,22_18_WF_0158.JPG,22_18_WF_0159.JPG,1,NA,NA,DEERWHITETAILED
399,31428755,22_18_WF_0160.JPG,22_18_WF_0161.JPG,22_18_WF_0162.JPG,1,NA,NA,DEERWHITETAILED
400,31428756,22_18_WF_0163.JPG,22_18_WF_0164.JPG,22_18_WF_0165.JPG,1,NA,NA,DEERWHITETAILED
401,31428757,22_18_WF_0166.JPG,22_18_WF_0167.JPG,22_18_WF_0168.JPG,1,NA,NA,DEERWHITETAILED
402,31428758,22_18_WF_0169.JPG,22_18_WF_0170.JPG,22_18_WF_0171.JPG,1,NA,NA,DEERWHITETAILED
403,31428759,22_18_WF_0172.JPG,22_18_WF_0173.JPG,NA,1,NA,NA,DEERWHITETAILED
404,31428760,22_18_WF_0178.JPG,22_18_WF_0179.JPG,22_18_WF_0180.JPG,1,NA,NA,DEERWHITETAILED
405,31428761,22_18_WF_0181.JPG,22_18_WF_0182.JPG,22_18_WF_0183.JPG,1,NA,NA,DEERWHITETAILED
406,31428762,22_18_WF_0184.JPG,22_18_WF_0185.JPG,22_18_WF_0186.JPG,1,NA,NA,DEERWHITETAILED
407,31428763,22_18_WF_0187.JPG,22_18_WF_0188.JPG,22_18_WF_0189.JPG,1,NA,NA,DEERWHITETAILED
408,31428764,22_18_WF_0190.JPG,22_18_WF_0191.JPG,22_18_WF_0192.JPG,1,NA,NA,DEERWHITETAILED
409,31428765,22_18_WF_0193.JPG,22_18_WF_0194.JPG,22_18_WF_0195.JPG,1,NA,NA,DEERWHITETAILED
410,31428767,22_18_WF_0199.JPG,22_18_WF_0200.JPG,22_18_WF_0201.JPG,1,NA,NA,SOMETHINGHERE
411,31428768,22_18_WF_0202.JPG,22_18_WF_0203.JPG,22_18_WF_0204.JPG,1,NA,NA,DEERWHITETAILED
412,31428769,22_18_WF_0205.JPG,22_18_WF_0206.JPG,22_18_WF_0207.JPG,1,NA,NA,DEERWHITETAILED
413,31428770,22_18_WF_0208.JPG,22_18_WF_0209.JPG,22_18_WF_0210.JPG,1,NA,NA,DEERWHITETAILED
414,31428771,22_18_WF_0211.JPG,22_18_WF_0212.JPG,22_18_WF_0213.JPG,1,NA,NA,DEERWHITETAILED
415,31428772,22_18_WF_0214.JPG,22_18_WF_0215.JPG,22_18_WF_0216.JPG,1,NA,NA,DEERWHITETAILED
416,31428773,22_18_WF_0217.JPG,22_18_WF_0218.JPG,22_18_WF_0219.JPG,1,NA,NA,DEERWHITETAILED
417,31428774,22_18_WF_0220.JPG,22_18_WF_0221.JPG,22_18_WF_0222.JPG,1,NA,NA,DEERWHITETAILED
418,31428775,22_18_WF_0223.JPG,22_18_WF_0224.JPG,22_18_WF_0225.JPG,1,NA,NA,DEERWHITETAILED
419,31428776,22_18_WF_0226.JPG,22_18_WF_0227.JPG,22_18_WF_0228.JPG,1,NA,NA,DEERWHITETAILED
420,31428777,22_18_WF_0229.JPG,22_18_WF_0230.JPG,22_18_WF_0231.JPG,1,NA,NA,DEERWHITETAILED
421,31428778,22_18_WF_0232.JPG,22_18_WF_0233.JPG,22_18_WF_0234.JPG,1,NA,NA,DEERWHITETAILED
422,31428779,22_18_WF_0235.JPG,22_18_WF_0236.JPG,22_18_WF_0237.JPG,1,NA,NA,DEERWHITETAILED
423,31428780,22_18_WF_0238.JPG,22_18_WF_0239.JPG,22_18_WF_0240.JPG,1,NA,NA,DEERWHITETAILED
424,31428781,22_18_WF_0241.JPG,22_18_WF_0242.JPG,22_18_WF_0243.JPG,1,NA,NA,DEERWHITETAILED
425,31428782,22_18_WF_0244.JPG,22_18_WF_0245.JPG,22_18_WF_0246.JPG,1,NA,NA,DEERWHITETAILED
426,31428783,22_18_WF_0247.JPG,22_18_WF_0248.JPG,22_18_WF_0249.JPG,1,NA,NA,DOMESTICCAT
427,31428785,22_18_WF_0253.JPG,22_18_WF_0254.JPG,22_18_WF_0255.JPG,1,NA,NA,DEERWHITETAILED
428,31428786,22_18_WF_0256.JPG,22_18_WF_0257.JPG,22_18_WF_0258.JPG,1,NA,NA,DEERWHITETAILED
429,31428787,22_18_WF_0259.JPG,22_18_WF_0260.JPG,22_18_WF_0261.JPG,1,NA,NA,DEERWHITETAILED
430,31428788,22_18_WF_0262.JPG,22_18_WF_0263.JPG,22_18_WF_0264.JPG,1,NA,NA,DEERWHITETAILED
431,31428789,22_18_WF_0265.JPG,22_18_WF_0266.JPG,22_18_WF_0267.JPG,1,NA,NA,DEERWHITETAILED
432,31428792,22_18_WF_0274.JPG,22_18_WF_0275.JPG,22_18_WF_0276.JPG,1,NA,NA,DEERWHITETAILED
433,31428793,22_18_WF_0277.JPG,22_18_WF_0278.JPG,22_18_WF_0279.JPG,1,NA,NA,DEERWHITETAILED
434,31428794,22_18_WF_0280.JPG,22_18_WF_0281.JPG,22_18_WF_0282.JPG,1,NA,NA,NOTHINGHERE
435,31428796,22_18_WF_0286.JPG,22_18_WF_0287.JPG,22_18_WF_0288.JPG,1,NA,NA,NOTHINGHERE
436,31428797,22_18_WF_0289.JPG,22_18_WF_0290.JPG,22_18_WF_0291.JPG,1,NA,NA,DEERWHITETAILED
437,31428798,22_18_WF_0292.JPG,22_18_WF_0293.JPG,22_18_WF_0294.JPG,1,NA,NA,DEERWHITETAILED
438,31428799,22_18_WF_0295.JPG,22_18_WF_0296.JPG,22_18_WF_0297.JPG,1,NA,NA,DEERWHITETAILED
439,31428801,22_18_WF_0301.JPG,22_18_WF_0302.JPG,22_18_WF_0303.JPG,1,NA,NA,DEERWHITETAILED
440,31428802,22_18_WF_0304.JPG,22_18_WF_0305.JPG,22_18_WF_0306.JPG,1,NA,NA,DEERWHITETAILED
441,31428803,22_18_WF_0307.JPG,22_18_WF_0308.JPG,22_18_WF_0309.JPG,1,NA,NA,DEERWHITETAILED
442,31428804,22_18_WF_0310.JPG,22_18_WF_0311.JPG,22_18_WF_0312.JPG,1,NA,NA,DEERWHITETAILED
443,31428805,22_18_WF_0313.JPG,22_18_WF_0314.JPG,22_18_WF_0315.JPG,1,NA,NA,DEERWHITETAILED
444,31428806,22_18_WF_0316.JPG,22_18_WF_0317.JPG,22_18_WF_0318.JPG,1,NA,NA,DEERWHITETAILED
445,31428807,22_18_WF_0319.JPG,22_18_WF_0320.JPG,22_18_WF_0321.JPG,1,NA,NA,DEERWHITETAILED
446,31428808,22_18_WF_0325.JPG,22_18_WF_0326.JPG,22_18_WF_0327.JPG,1,NA,NA,DEERWHITETAILED
447,31428809,22_18_WF_0328.JPG,22_18_WF_0329.JPG,22_18_WF_0330.JPG,1,NA,NA,DEERWHITETAILED
448,31428810,22_18_WF_0331.JPG,22_18_WF_0332.JPG,22_18_WF_0333.JPG,1,NA,NA,DEERWHITETAILED
449,31428811,22_18_WF_0334.JPG,22_18_WF_0335.JPG,22_18_WF_0336.JPG,1,NA,NA,DEERWHITETAILED
450,31428812,22_18_WF_0337.JPG,22_18_WF_0338.JPG,22_18_WF_0339.JPG,1,NA,NA,DEERWHITETAILED
451,31428813,22_18_WF_0340.JPG,22_18_WF_0341.JPG,22_18_WF_0342.JPG,1,NA,NA,DEERWHITETAILED
452,31428814,22_18_WF_0343.JPG,22_18_WF_0344.JPG,22_18_WF_0345.JPG,1,NA,NA,DEERWHITETAILED
453,31428815,22_18_WF_0346.JPG,22_18_WF_0347.JPG,22_18_WF_0348.JPG,1,NA,NA,DEERWHITETAILED
454,31428816,22_18_WF_0349.JPG,22_18_WF_0350.JPG,22_18_WF_0351.JPG,1,NA,NA,DEERWHITETAILED
455,31428817,22_18_WF_0352.JPG,22_18_WF_0353.JPG,22_18_WF_0354.JPG,1,NA,NA,DEERWHITETAILED
456,31428818,22_18_WF_0355.JPG,22_18_WF_0356.JPG,22_18_WF_0357.JPG,1,NA,NA,DEERWHITETAILED
457,31428819,22_18_WF_0358.JPG,22_18_WF_0359.JPG,22_18_WF_0360.JPG,1,NA,NA,DEERWHITETAILED
458,31428820,22_18_WF_0361.JPG,22_18_WF_0362.JPG,22_18_WF_0363.JPG,1,NA,NA,DEERWHITETAILED
459,31428821,22_18_WF_0364.JPG,22_18_WF_0365.JPG,22_18_WF_0366.JPG,1,NA,NA,DEERWHITETAILED
460,31428822,22_18_WF_0367.JPG,22_18_WF_0368.JPG,22_18_WF_0369.JPG,1,NA,NA,DEERWHITETAILED
461,31428823,22_18_WF_0370.JPG,22_18_WF_0371.JPG,22_18_WF_0372.JPG,1,NA,NA,DEERWHITETAILED
462,31428824,22_18_WF_0373.JPG,22_18_WF_0374.JPG,22_18_WF_0375.JPG,1,NA,NA,HUMAN
463,31428825,23_03_SH_0001.JPG,23_03_SH_0002.JPG,23_03_SH_0003.JPG,1,NA,NA,DEERWHITETAILED
464,31428826,23_03_SH_0004.JPG,23_03_SH_0005.JPG,23_03_SH_0006.JPG,1,NA,NA,DEERWHITETAILED
465,31428827,23_03_SH_0007.JPG,23_03_SH_0008.JPG,23_03_SH_0009.JPG,1,NA,NA,SQUIRRELGRAY
466,31428828,23_03_SH_0010.JPG,23_03_SH_0011.JPG,23_03_SH_0012.JPG,1,NA,NA,SQUIRRELGRAY
467,31428829,23_03_SH_0013.JPG,23_03_SH_0014.JPG,23_03_SH_0015.JPG,1,NA,NA,NOTHINGHERE
468,31428830,23_03_SH_0016.JPG,23_03_SH_0017.JPG,23_03_SH_0018.JPG,1,NA,NA,DEERWHITETAILED
469,31428831,23_03_SH_0019.JPG,23_03_SH_0020.JPG,23_03_SH_0021.JPG,1,NA,NA,SQUIRRELGRAY
470,31428832,23_03_SH_0022.JPG,23_03_SH_0023.JPG,23_03_SH_0024.JPG,1,NA,NA,DEERWHITETAILED
471,31428833,23_03_SH_0025.JPG,23_03_SH_0026.JPG,23_03_SH_0027.JPG,1,NA,NA,DEERWHITETAILED
472,31428834,23_03_SH_0028.JPG,23_03_SH_0029.JPG,23_03_SH_0030.JPG,1,NA,NA,SQUIRRELGRAY
473,31428836,23_03_SH_0034.JPG,23_03_SH_0035.JPG,23_03_SH_0036.JPG,1,NA,NA,NOTHINGHERE
474,31428837,23_03_SH_0037.JPG,23_03_SH_0038.JPG,23_03_SH_0039.JPG,1,NA,NA,RACCOON
475,31428838,23_03_SH_0040.JPG,23_03_SH_0041.JPG,23_03_SH_0042.JPG,1,NA,NA,COYOTE
476,31428839,23_03_SH_0043.JPG,23_03_SH_0044.JPG,23_03_SH_0045.JPG,1,NA,NA,DEERWHITETAILED
477,31428840,23_03_SH_0046.JPG,23_03_SH_0047.JPG,23_03_SH_0048.JPG,1,NA,NA,DEERWHITETAILED
478,31428841,23_03_SH_0049.JPG,23_03_SH_0050.JPG,23_03_SH_0051.JPG,1,NA,NA,DEERWHITETAILED
479,31428842,23_03_SH_0052.JPG,23_03_SH_0053.JPG,23_03_SH_0054.JPG,1,NA,NA,DEERWHITETAILED
480,31428843,23_03_SH_0055.JPG,23_03_SH_0056.JPG,23_03_SH_0057.JPG,1,NA,NA,SOMETHINGHERE
481,31428844,23_03_SH_0058.JPG,23_03_SH_0059.JPG,23_03_SH_0060.JPG,1,NA,NA,OTHERBIRD
482,31428845,23_03_SH_0061.JPG,23_03_SH_0062.JPG,23_03_SH_0063.JPG,1,NA,NA,DEERWHITETAILED
483,31428847,23_03_SH_0067.JPG,23_03_SH_0068.JPG,23_03_SH_0069.JPG,1,NA,NA,DEERWHITETAILED
484,31428848,23_03_SH_0070.JPG,23_03_SH_0071.JPG,23_03_SH_0072.JPG,1,NA,NA,DEERWHITETAILED
485,31428849,23_03_SH_0073.JPG,23_03_SH_0074.JPG,23_03_SH_0075.JPG,1,NA,NA,NOTHINGHERE
486,31428850,23_03_SH_0076.JPG,23_03_SH_0077.JPG,23_03_SH_0078.JPG,1,NA,NA,NOTHINGHERE
487,31428851,23_03_SH_0079.JPG,23_03_SH_0080.JPG,23_03_SH_0081.JPG,1,NA,NA,DEERWHITETAILED
488,31428853,23_03_SH_0085.JPG,23_03_SH_0086.JPG,23_03_SH_0087.JPG,1,NA,NA,NOTHINGHERE
489,31428854,23_03_SH_0088.JPG,23_03_SH_0089.JPG,23_03_SH_0090.JPG,1,NA,NA,DEERWHITETAILED
490,31428855,23_03_SH_0091.JPG,23_03_SH_0092.JPG,23_03_SH_0093.JPG,1,NA,NA,DEERWHITETAILED
491,31428856,23_03_SH_0094.JPG,23_03_SH_0095.JPG,23_03_SH_0096.JPG,1,NA,NA,SQUIRRELGRAY
492,31428857,23_03_SH_0097.JPG,23_03_SH_0098.JPG,23_03_SH_0099.JPG,1,NA,NA,DEERWHITETAILED
493,31428858,23_03_SH_0100.JPG,23_03_SH_0101.JPG,23_03_SH_0102.JPG,1,NA,NA,NOTHINGHERE
494,31428859,23_03_SH_0103.JPG,23_03_SH_0104.JPG,23_03_SH_0105.JPG,1,NA,NA,NOTHINGHERE
495,31428860,23_03_SH_0106.JPG,23_03_SH_0107.JPG,23_03_SH_0108.JPG,1,NA,NA,NOTHINGHERE
496,31428861,23_03_SH_0109.JPG,23_03_SH_0110.JPG,23_03_SH_0111.JPG,1,NA,NA,NOTHINGHERE
497,31428864,23_03_SH_0118.JPG,23_03_SH_0119.JPG,23_03_SH_0120.JPG,1,NA,NA,SOMETHINGHERE
498,31428865,24_04_BC_0001.JPG,24_04_BC_0002.JPG,24_04_BC_0003.JPG,1,NA,NA,HUMAN
499,31428866,24_04_BC_0004.JPG,24_04_BC_0005.JPG,24_04_BC_0006.JPG,1,NA,NA,HUMAN
500,31428867,24_04_BC_0007.JPG,24_04_BC_0008.JPG,24_04_BC_0009.JPG,1,NA,NA,HUMAN
501,31428868,24_04_BC_0010.JPG,24_04_BC_0011.JPG,24_04_BC_0012.JPG,1,NA,NA,HUMAN
502,31428869,24_04_BC_0013.JPG,24_04_BC_0014.JPG,24_04_BC_0015.JPG,1,NA,NA,HUMAN
503,31428870,24_04_BC_0016.JPG,24_04_BC_0017.JPG,24_04_BC_0018.JPG,1,NA,NA,HUMAN
504,31428871,24_04_BC_0019.JPG,24_04_BC_0020.JPG,24_04_BC_0021.JPG,1,NA,NA,HUMAN
505,31428872,24_04_BC_0022.JPG,24_04_BC_0023.JPG,24_04_BC_0024.JPG,1,NA,NA,HUMAN
506,31428873,24_04_BC_0025.JPG,24_04_BC_0026.JPG,24_04_BC_0027.JPG,1,NA,NA,HUMAN
507,31428874,24_04_BC_0028.JPG,24_04_BC_0029.JPG,24_04_BC_0030.JPG,1,NA,NA,HUMAN
508,31428875,24_04_BC_0031.JPG,24_04_BC_0032.JPG,24_04_BC_0033.JPG,1,NA,NA,HUMAN
509,31428876,24_04_BC_0034.JPG,24_04_BC_0035.JPG,24_04_BC_0036.JPG,1,NA,NA,DEERWHITETAILED
510,31428877,24_04_BC_0037.JPG,24_04_BC_0038.JPG,24_04_BC_0039.JPG,1,NA,NA,DEERWHITETAILED
511,31428878,24_04_BC_0040.JPG,24_04_BC_0041.JPG,24_04_BC_0042.JPG,1,NA,NA,SQUIRRELGRAY
512,31428879,24_04_BC_0043.JPG,24_04_BC_0044.JPG,24_04_BC_0045.JPG,1,NA,NA,DEERWHITETAILED
513,31428880,24_04_BC_0046.JPG,24_04_BC_0047.JPG,24_04_BC_0048.JPG,1,NA,NA,DEERWHITETAILED
514,31428881,24_04_BC_0049.JPG,24_04_BC_0050.JPG,24_04_BC_0051.JPG,1,NA,NA,DEERWHITETAILED
515,31428882,24_04_BC_0052.JPG,24_04_BC_0053.JPG,24_04_BC_0054.JPG,1,NA,NA,DEERWHITETAILED
516,31428883,24_04_BC_0055.JPG,24_04_BC_0056.JPG,24_04_BC_0057.JPG,1,NA,NA,DEERWHITETAILED
517,31428884,24_04_BC_0058.JPG,24_04_BC_0059.JPG,24_04_BC_0060.JPG,1,NA,NA,DEERWHITETAILED
518,31428885,24_04_BC_0061.JPG,24_04_BC_0062.JPG,24_04_BC_0063.JPG,1,NA,NA,DEERWHITETAILED
519,31428886,24_04_BC_0064.JPG,24_04_BC_0065.JPG,24_04_BC_0066.JPG,1,NA,NA,SQUIRRELGRAY
520,31428887,24_04_BC_0067.JPG,24_04_BC_0068.JPG,24_04_BC_0069.JPG,1,NA,NA,SQUIRRELGRAY
521,31428888,24_04_BC_0070.JPG,24_04_BC_0071.JPG,24_04_BC_0072.JPG,1,NA,NA,DEERWHITETAILED
522,31428890,24_04_BC_0076.JPG,24_04_BC_0077.JPG,24_04_BC_0078.JPG,1,NA,NA,DEERWHITETAILED
523,31428892,24_04_BC_0082.JPG,24_04_BC_0083.JPG,24_04_BC_0084.JPG,1,NA,NA,DEERWHITETAILED
524,31428893,24_04_BC_0085.JPG,24_04_BC_0086.JPG,24_04_BC_0087.JPG,1,NA,NA,DEERWHITETAILED
525,31428894,24_04_BC_0088.JPG,24_04_BC_0089.JPG,24_04_BC_0090.JPG,1,NA,NA,DEERWHITETAILED
526,31428895,25_09_SH_0001.JPG,25_09_SH_0002.JPG,25_09_SH_0003.JPG,1,NA,NA,HUMAN
527,31428896,25_09_SH_0004.JPG,25_09_SH_0005.JPG,25_09_SH_0006.JPG,1,NA,NA,DOMESTICDOG
528,31428897,25_09_SH_0007.JPG,25_09_SH_0008.JPG,NA,1,NA,NA,DOMESTICDOG
529,31428898,25_09_SH_0012.JPG,25_09_SH_0013.JPG,25_09_SH_0014.JPG,1,NA,NA,DOMESTICDOG
530,31428900,25_09_SH_0018.JPG,25_09_SH_0019.JPG,25_09_SH_0020.JPG,1,NA,NA,NOTHINGHERE
531,31428901,25_09_SH_0021.JPG,25_09_SH_0022.JPG,25_09_SH_0023.JPG,1,NA,NA,DEERWHITETAILED
532,31428902,25_09_SH_0024.JPG,25_09_SH_0025.JPG,25_09_SH_0026.JPG,1,NA,NA,DEERWHITETAILED
533,31428903,25_09_SH_0027.JPG,25_09_SH_0028.JPG,25_09_SH_0029.JPG,1,NA,NA,DEERWHITETAILED
534,31428904,25_09_SH_0030.JPG,25_09_SH_0031.JPG,25_09_SH_0032.JPG,1,NA,NA,DEERWHITETAILED
535,31428905,25_09_SH_0033.JPG,25_09_SH_0034.JPG,25_09_SH_0035.JPG,1,NA,NA,DEERWHITETAILED
536,31428907,25_09_SH_0039.JPG,25_09_SH_0040.JPG,25_09_SH_0041.JPG,1,NA,NA,NOTHINGHERE
537,31428909,25_09_SH_0045.JPG,25_09_SH_0046.JPG,25_09_SH_0047.JPG,1,NA,NA,DEERWHITETAILED
538,31428912,25_09_SH_0054.JPG,25_09_SH_0055.JPG,25_09_SH_0056.JPG,1,NA,NA,NOTHINGHERE
539,31428913,25_09_SH_0057.JPG,25_09_SH_0058.JPG,25_09_SH_0059.JPG,1,NA,NA,NOTHINGHERE
540,31428914,25_09_SH_0060.JPG,25_09_SH_0061.JPG,25_09_SH_0062.JPG,1,NA,NA,NOTHINGHERE
541,31428915,25_09_SH_0063.JPG,25_09_SH_0064.JPG,25_09_SH_0065.JPG,1,NA,NA,SQUIRRELGRAY
542,31428917,25_09_SH_0069.JPG,25_09_SH_0070.JPG,25_09_SH_0071.JPG,1,NA,NA,FOXRED
543,31428919,25_09_SH_0075.JPG,25_09_SH_0076.JPG,25_09_SH_0077.JPG,1,NA,NA,DEERWHITETAILED
544,31428921,25_09_SH_0081.JPG,25_09_SH_0082.JPG,25_09_SH_0083.JPG,1,NA,NA,NOTHINGHERE
545,31428923,27_08_IMG_0028.JPG,27_08_IMG_0029.JPG,27_08_IMG_0030.JPG,1,NA,NA,NOTHINGHERE
546,31428924,27_08_IMG_0031.JPG,27_08_IMG_0032.JPG,27_08_IMG_0033.JPG,1,NA,NA,NOTHINGHERE
547,31428925,27_08_IMG_0034.JPG,27_08_IMG_0035.JPG,27_08_IMG_0036.JPG,1,NA,NA,DEERWHITETAILED
548,31428926,27_08_IMG_0037.JPG,27_08_IMG_0038.JPG,27_08_IMG_0039.JPG,1,NA,NA,NOTHINGHERE
549,31428927,27_08_IMG_0040.JPG,27_08_IMG_0041.JPG,27_08_IMG_0042.JPG,1,NA,NA,NOTHINGHERE
550,31428928,27_08_IMG_0043.JPG,27_08_IMG_0044.JPG,27_08_IMG_0045.JPG,1,NA,NA,DEERWHITETAILED
551,31428929,27_08_IMG_0046.JPG,27_08_IMG_0047.JPG,27_08_IMG_0048.JPG,1,NA,NA,NOTHINGHERE
552,31428930,28_15_DEG_0008.JPG,28_15_DEG_0009.JPG,28_15_DEG_0010.JPG,1,NA,NA,FISHER
553,31428934,29_19_DEG_0001.JPG,29_19_DEG_0002.JPG,29_19_DEG_0003.JPG,1,NA,NA,DEERWHITETAILED
554,31428935,29_19_DEG_0004.JPG,29_19_DEG_0005.JPG,29_19_DEG_0006.JPG,1,NA,NA,DEERWHITETAILED
555,31428936,29_19_DEG_0007.JPG,29_19_DEG_0008.JPG,29_19_DEG_0009.JPG,1,NA,NA,FISHER
556,31428939,29_19_DEG_0016.JPG,29_19_DEG_0017.JPG,29_19_DEG_0018.JPG,1,NA,NA,DEERWHITETAILED
557,31428940,29_19_DEG_0019.JPG,29_19_DEG_0020.JPG,NA,1,NA,NA,DEERWHITETAILED
558,31428941,29_19_DEG_0025.JPG,29_19_DEG_0026.JPG,29_19_DEG_0027.JPG,1,NA,NA,DEERWHITETAILED
559,31428942,29_19_DEG_0028.JPG,29_19_DEG_0029.JPG,29_19_DEG_0030.JPG,1,NA,NA,DEERWHITETAILED
560,31428943,29_19_DEG_0031.JPG,29_19_DEG_0032.JPG,29_19_DEG_0033.JPG,1,NA,NA,DEERWHITETAILED
561,31428944,29_19_DEG_0034.JPG,29_19_DEG_0035.JPG,29_19_DEG_0036.JPG,1,NA,NA,DEERWHITETAILED
562,31428946,29_19_DEG_0040.JPG,29_19_DEG_0041.JPG,29_19_DEG_0042.JPG,1,NA,NA,DEERWHITETAILED
563,31428947,29_19_DEG_0043.JPG,29_19_DEG_0044.JPG,29_19_DEG_0045.JPG,1,NA,NA,DEERWHITETAILED
564,31428949,29_19_DEG_0049.JPG,29_19_DEG_0050.JPG,29_19_DEG_0051.JPG,1,NA,NA,DEERWHITETAILED
565,31428950,29_19_DEG_0052.JPG,29_19_DEG_0053.JPG,29_19_DEG_0054.JPG,1,NA,NA,DEERWHITETAILED
566,31428951,29_19_DEG_0055.JPG,29_19_DEG_0056.JPG,NA,1,NA,NA,DEERWHITETAILED
567,31428952,29_19_DEG_0061.JPG,29_19_DEG_0062.JPG,29_19_DEG_0063.JPG,1,NA,NA,DEERWHITETAILED
568,31428954,29_19_DEG_0067.JPG,29_19_DEG_0068.JPG,29_19_DEG_0069.JPG,1,NA,NA,DEERWHITETAILED
569,31428955,29_19_DEG_0070.JPG,29_19_DEG_0071.JPG,NA,1,NA,NA,DEERWHITETAILED
570,31428956,29_19_DEG_0073.JPG,29_19_DEG_0074.JPG,29_19_DEG_0075.JPG,1,NA,NA,SQUIRRELRED
571,31428957,29_19_DEG_0076.JPG,29_19_DEG_0077.JPG,29_19_DEG_0078.JPG,1,NA,NA,SQUIRRELRED
572,31428958,29_19_DEG_0079.JPG,29_19_DEG_0080.JPG,29_19_DEG_0081.JPG,1,NA,NA,DEERWHITETAILED
573,31428959,29_19_DEG_0082.JPG,29_19_DEG_0083.JPG,29_19_DEG_0084.JPG,1,NA,NA,DEERWHITETAILED
574,31428960,29_19_DEG_0085.JPG,29_19_DEG_0086.JPG,29_19_DEG_0087.JPG,1,NA,NA,DEERWHITETAILED
575,31428961,29_19_DEG_0088.JPG,29_19_DEG_0089.JPG,29_19_DEG_0090.JPG,1,NA,NA,DEERWHITETAILED
576,31428963,29_19_DEG_0094.JPG,29_19_DEG_0095.JPG,29_19_DEG_0096.JPG,1,NA,NA,DEERWHITETAILED
577,31428964,29_19_DEG_0097.JPG,29_19_DEG_0098.JPG,NA,1,NA,NA,DEERWHITETAILED
578,31428965,29_19_DEG_0103.JPG,29_19_DEG_0104.JPG,29_19_DEG_0105.JPG,1,NA,NA,DEERWHITETAILED
579,31428966,29_19_DEG_0106.JPG,29_19_DEG_0107.JPG,NA,1,NA,NA,DEERWHITETAILED
580,31428967,29_19_DEG_0112.JPG,29_19_DEG_0113.JPG,29_19_DEG_0114.JPG,1,NA,NA,DEERWHITETAILED
581,31428968,29_19_DEG_0115.JPG,29_19_DEG_0116.JPG,29_19_DEG_0117.JPG,1,NA,NA,DEERWHITETAILED
582,31428969,29_19_DEG_0118.JPG,29_19_DEG_0119.JPG,29_19_DEG_0120.JPG,1,NA,NA,DEERWHITETAILED
583,31428970,29_19_DEG_0121.JPG,29_19_DEG_0122.JPG,NA,1,NA,NA,DEERWHITETAILED
584,31428971,29_19_DEG_0127.JPG,29_19_DEG_0128.JPG,29_19_DEG_0129.JPG,1,NA,NA,DEERWHITETAILED
585,31428972,29_19_DEG_0130.JPG,29_19_DEG_0131.JPG,29_19_DEG_0132.JPG,1,NA,NA,DEERWHITETAILED
586,31428973,29_19_DEG_0133.JPG,29_19_DEG_0134.JPG,29_19_DEG_0135.JPG,1,NA,NA,DEERWHITETAILED
587,31428975,29_19_DEG_0139.JPG,29_19_DEG_0140.JPG,29_19_DEG_0141.JPG,1,NA,NA,DEERWHITETAILED
588,31428976,29_19_DEG_0142.JPG,29_19_DEG_0143.JPG,29_19_DEG_0144.JPG,1,NA,NA,DEERWHITETAILED
589,31428977,29_19_DEG_0145.JPG,29_19_DEG_0146.JPG,29_19_DEG_0147.JPG,1,NA,NA,DEERWHITETAILED
590,31428978,29_19_DEG_0148.JPG,29_19_DEG_0149.JPG,29_19_DEG_0150.JPG,1,NA,NA,NOTHINGHERE
591,31428979,29_19_DEG_0151.JPG,29_19_DEG_0152.JPG,29_19_DEG_0153.JPG,1,NA,NA,DEERWHITETAILED
592,31428980,29_19_DEG_0160.JPG,29_19_DEG_0161.JPG,29_19_DEG_0162.JPG,1,NA,NA,DEERWHITETAILED
593,31428981,29_19_DEG_0163.JPG,29_19_DEG_0164.JPG,29_19_DEG_0165.JPG,1,NA,NA,DEERWHITETAILED
594,31428982,29_19_DEG_0166.JPG,29_19_DEG_0167.JPG,29_19_DEG_0168.JPG,1,NA,NA,DEERWHITETAILED
595,31428983,29_19_DEG_0169.JPG,29_19_DEG_0170.JPG,29_19_DEG_0171.JPG,1,NA,NA,DEERWHITETAILED
596,31428984,29_19_DEG_0172.JPG,29_19_DEG_0173.JPG,29_19_DEG_0174.JPG,1,NA,NA,DEERWHITETAILED
597,31428985,29_19_DEG_0175.JPG,29_19_DEG_0176.JPG,29_19_DEG_0177.JPG,1,NA,NA,DEERWHITETAILED
598,31428986,29_19_DEG_0178.JPG,29_19_DEG_0179.JPG,29_19_DEG_0180.JPG,1,NA,NA,DEERWHITETAILED
599,31428987,29_19_DEG_0181.JPG,29_19_DEG_0182.JPG,29_19_DEG_0183.JPG,1,NA,NA,DEERWHITETAILED
600,31428989,29_19_DEG_0187.JPG,29_19_DEG_0188.JPG,29_19_DEG_0189.JPG,1,NA,NA,DEERWHITETAILED
601,31428990,29_19_DEG_0190.JPG,29_19_DEG_0191.JPG,NA,1,NA,NA,DEERWHITETAILED
602,31428991,29_19_DEG_0193.JPG,29_19_DEG_0194.JPG,29_19_DEG_0195.JPG,1,NA,NA,DEERWHITETAILED
603,31428992,29_19_DEG_0196.JPG,29_19_DEG_0197.JPG,29_19_DEG_0198.JPG,1,NA,NA,DEERWHITETAILED
604,31428993,29_19_DEG_0199.JPG,29_19_DEG_0200.JPG,29_19_DEG_0201.JPG,1,NA,NA,DEERWHITETAILED
605,31428995,29_19_DEG_0205.JPG,29_19_DEG_0206.JPG,29_19_DEG_0207.JPG,1,NA,NA,DEERWHITETAILED
606,31428996,29_19_DEG_0208.JPG,29_19_DEG_0209.JPG,29_19_DEG_0210.JPG,1,NA,NA,DEERWHITETAILED
607,31428997,29_19_DEG_0211.JPG,29_19_DEG_0212.JPG,29_19_DEG_0213.JPG,1,NA,NA,DEERWHITETAILED
608,31428998,29_19_DEG_0214.JPG,29_19_DEG_0215.JPG,29_19_DEG_0216.JPG,1,NA,NA,DEERWHITETAILED
609,31429000,29_19_DEG_0220.JPG,29_19_DEG_0221.JPG,29_19_DEG_0222.JPG,1,NA,NA,DEERWHITETAILED
610,31429001,29_19_DEG_0223.JPG,29_19_DEG_0224.JPG,29_19_DEG_0225.JPG,1,NA,NA,DEERWHITETAILED
611,31429002,29_19_DEG_0226.JPG,29_19_DEG_0227.JPG,29_19_DEG_0228.JPG,1,NA,NA,DEERWHITETAILED
612,31429003,29_19_DEG_0229.JPG,29_19_DEG_0230.JPG,29_19_DEG_0231.JPG,1,NA,NA,DEERWHITETAILED
613,31429004,29_19_DEG_0232.JPG,29_19_DEG_0233.JPG,29_19_DEG_0234.JPG,1,NA,NA,DEERWHITETAILED
614,31429005,29_19_DEG_0235.JPG,29_19_DEG_0236.JPG,29_19_DEG_0237.JPG,1,NA,NA,DEERWHITETAILED
615,31429006,29_19_DEG_0238.JPG,29_19_DEG_0239.JPG,29_19_DEG_0240.JPG,1,NA,NA,DEERWHITETAILED
616,31429007,29_19_DEG_0241.JPG,29_19_DEG_0242.JPG,29_19_DEG_0243.JPG,1,NA,NA,DEERWHITETAILED
617,31429008,29_19_DEG_0244.JPG,29_19_DEG_0245.JPG,29_19_DEG_0246.JPG,1,NA,NA,DEERWHITETAILED
618,31429009,29_19_DEG_0247.JPG,29_19_DEG_0248.JPG,29_19_DEG_0249.JPG,1,NA,NA,DEERWHITETAILED
619,31429010,29_19_DEG_0250.JPG,29_19_DEG_0251.JPG,29_19_DEG_0252.JPG,1,NA,NA,SOMETHINGHERE
620,31429011,29_19_DEG_0253.JPG,29_19_DEG_0254.JPG,29_19_DEG_0255.JPG,1,NA,NA,DEERWHITETAILED
621,31429013,29_19_DEG_0259.JPG,29_19_DEG_0260.JPG,29_19_DEG_0261.JPG,1,NA,NA,DEERWHITETAILED
622,31429016,29_19_DEG_0268.JPG,29_19_DEG_0269.JPG,29_19_DEG_0270.JPG,1,NA,NA,NOTHINGHERE
623,31429017,29_19_DEG_0271.JPG,29_19_DEG_0272.JPG,29_19_DEG_0273.JPG,1,NA,NA,DEERWHITETAILED
624,31429018,29_19_DEG_0274.JPG,29_19_DEG_0275.JPG,29_19_DEG_0276.JPG,1,NA,NA,DEERWHITETAILED
625,31429019,29_19_DEG_0277.JPG,29_19_DEG_0278.JPG,29_19_DEG_0279.JPG,1,NA,NA,DEERWHITETAILED
626,31429020,29_19_DEG_0280.JPG,29_19_DEG_0281.JPG,29_19_DEG_0282.JPG,1,NA,NA,DEERWHITETAILED
627,31429021,29_19_DEG_0283.JPG,29_19_DEG_0284.JPG,29_19_DEG_0285.JPG,1,NA,NA,DEERWHITETAILED
628,31429023,29_19_DEG_0289.JPG,29_19_DEG_0290.JPG,29_19_DEG_0291.JPG,1,NA,NA,DEERWHITETAILED
629,31429024,29_19_DEG_0292.JPG,29_19_DEG_0293.JPG,29_19_DEG_0294.JPG,1,NA,NA,DEERWHITETAILED
630,31429025,29_19_DEG_0295.JPG,29_19_DEG_0296.JPG,29_19_DEG_0297.JPG,1,NA,NA,DEERWHITETAILED
631,31429026,29_19_DEG_0298.JPG,29_19_DEG_0299.JPG,29_19_DEG_0300.JPG,1,NA,NA,DEERWHITETAILED
632,31429027,29_19_DEG_0301.JPG,29_19_DEG_0302.JPG,29_19_DEG_0303.JPG,1,NA,NA,DEERWHITETAILED
633,31429029,29_19_DEG_0307.JPG,29_19_DEG_0308.JPG,29_19_DEG_0309.JPG,1,NA,NA,DEERWHITETAILED
634,31429030,29_19_DEG_0310.JPG,29_19_DEG_0311.JPG,29_19_DEG_0312.JPG,1,NA,NA,DEERWHITETAILED
635,31429031,29_19_DEG_0313.JPG,29_19_DEG_0314.JPG,29_19_DEG_0315.JPG,1,NA,NA,DEERWHITETAILED
636,31429032,29_19_DEG_0316.JPG,29_19_DEG_0317.JPG,29_19_DEG_0318.JPG,1,NA,NA,DEERWHITETAILED
637,31429033,29_19_DEG_0319.JPG,29_19_DEG_0320.JPG,29_19_DEG_0321.JPG,1,NA,NA,DEERWHITETAILED
638,31429034,29_19_DEG_0322.JPG,29_19_DEG_0323.JPG,29_19_DEG_0324.JPG,1,NA,NA,DEERWHITETAILED
639,31429035,29_19_DEG_0325.JPG,29_19_DEG_0326.JPG,29_19_DEG_0327.JPG,1,NA,NA,NOTHINGHERE
640,31429036,29_19_DEG_0328.JPG,29_19_DEG_0329.JPG,29_19_DEG_0330.JPG,1,NA,NA,DEERWHITETAILED
641,31429037,29_19_DEG_0331.JPG,29_19_DEG_0332.JPG,29_19_DEG_0333.JPG,1,NA,NA,DEERWHITETAILED
642,31429038,29_19_DEG_0334.JPG,29_19_DEG_0335.JPG,29_19_DEG_0336.JPG,1,NA,NA,DEERWHITETAILED
643,31429039,29_19_DEG_0337.JPG,29_19_DEG_0338.JPG,29_19_DEG_0339.JPG,1,NA,NA,DEERWHITETAILED
644,31429040,29_19_DEG_0340.JPG,29_19_DEG_0341.JPG,29_19_DEG_0342.JPG,1,NA,NA,DEERWHITETAILED
645,31429041,29_19_DEG_0343.JPG,29_19_DEG_0344.JPG,29_19_DEG_0345.JPG,1,NA,NA,DEERWHITETAILED
646,31429042,29_19_DEG_0346.JPG,29_19_DEG_0347.JPG,29_19_DEG_0348.JPG,1,NA,NA,NOTHINGHERE
647,31429043,29_19_DEG_0349.JPG,29_19_DEG_0350.JPG,29_19_DEG_0351.JPG,1,NA,NA,DEERWHITETAILED
648,31429044,29_19_DEG_0352.JPG,29_19_DEG_0353.JPG,29_19_DEG_0354.JPG,1,NA,NA,DEERWHITETAILED
649,31429045,29_19_DEG_0355.JPG,29_19_DEG_0356.JPG,29_19_DEG_0357.JPG,1,NA,NA,NOTHINGHERE
650,31429046,29_19_DEG_0358.JPG,29_19_DEG_0359.JPG,29_19_DEG_0360.JPG,1,NA,NA,DEERWHITETAILED
651,31429047,29_19_DEG_0361.JPG,29_19_DEG_0362.JPG,29_19_DEG_0363.JPG,1,NA,NA,DEERWHITETAILED
652,31429049,29_19_DEG_0367.JPG,29_19_DEG_0368.JPG,29_19_DEG_0369.JPG,1,NA,NA,DEERWHITETAILED
653,31429050,29_19_DEG_0370.JPG,29_19_DEG_0371.JPG,29_19_DEG_0372.JPG,1,NA,NA,DEERWHITETAILED
654,31429051,29_19_DEG_0373.JPG,29_19_DEG_0374.JPG,29_19_DEG_0375.JPG,1,NA,NA,DEERWHITETAILED
655,31429052,29_19_DEG_0376.JPG,29_19_DEG_0377.JPG,29_19_DEG_0378.JPG,1,NA,NA,DEERWHITETAILED
656,31429053,29_19_DEG_0379.JPG,29_19_DEG_0380.JPG,29_19_DEG_0381.JPG,1,NA,NA,DEERWHITETAILED
657,31429054,29_19_DEG_0382.JPG,29_19_DEG_0383.JPG,29_19_DEG_0384.JPG,1,NA,NA,DEERWHITETAILED
658,31429055,29_19_DEG_0385.JPG,29_19_DEG_0386.JPG,29_19_DEG_0387.JPG,1,NA,NA,DEERWHITETAILED
659,31429056,29_19_DEG_0388.JPG,29_19_DEG_0389.JPG,29_19_DEG_0390.JPG,1,NA,NA,DEERWHITETAILED
660,31429057,29_19_DEG_0391.JPG,29_19_DEG_0392.JPG,29_19_DEG_0393.JPG,1,NA,NA,DEERWHITETAILED
661,31429058,29_19_DEG_0394.JPG,29_19_DEG_0395.JPG,29_19_DEG_0396.JPG,1,NA,NA,DEERWHITETAILED
662,31429059,29_19_DEG_0397.JPG,29_19_DEG_0398.JPG,29_19_DEG_0399.JPG,1,NA,NA,DEERWHITETAILED
663,31429060,29_19_DEG_0400.JPG,29_19_DEG_0401.JPG,29_19_DEG_0402.JPG,1,NA,NA,DEERWHITETAILED
664,31429063,29_19_DEG_0409.JPG,29_19_DEG_0410.JPG,29_19_DEG_0411.JPG,1,NA,NA,DEERWHITETAILED
665,31429064,29_19_DEG_0412.JPG,29_19_DEG_0413.JPG,29_19_DEG_0414.JPG,1,NA,NA,DEERWHITETAILED
666,31429065,29_19_DEG_0415.JPG,29_19_DEG_0416.JPG,29_19_DEG_0417.JPG,1,NA,NA,DEERWHITETAILED
667,31429066,29_19_DEG_0418.JPG,29_19_DEG_0419.JPG,29_19_DEG_0420.JPG,1,NA,NA,NOTHINGHERE
668,31429070,29_19_DEG_0430.JPG,29_19_DEG_0431.JPG,29_19_DEG_0432.JPG,1,NA,NA,NOTHINGHERE
669,31429071,29_19_DEG_0433.JPG,29_19_DEG_0434.JPG,29_19_DEG_0435.JPG,1,NA,NA,NOTHINGHERE
670,31429072,29_19_DEG_0436.JPG,29_19_DEG_0437.JPG,29_19_DEG_0438.JPG,1,NA,NA,NOTHINGHERE
671,31429074,29_19_DEG_0442.JPG,29_19_DEG_0443.JPG,29_19_DEG_0444.JPG,1,NA,NA,NOTHINGHERE
672,31429075,29_19_DEG_0445.JPG,29_19_DEG_0446.JPG,29_19_DEG_0447.JPG,1,NA,NA,SOMETHINGHERE
673,31429076,29_19_DEG_0448.JPG,29_19_DEG_0449.JPG,29_19_DEG_0450.JPG,1,NA,NA,SOMETHINGHERE
674,31429079,29_19_DEG_0457.JPG,29_19_DEG_0458.JPG,29_19_DEG_0459.JPG,1,NA,NA,DEERWHITETAILED
675,31429080,29_19_DEG_0460.JPG,29_19_DEG_0461.JPG,29_19_DEG_0462.JPG,1,NA,NA,NOTHINGHERE
676,31429081,29_19_DEG_0463.JPG,29_19_DEG_0464.JPG,29_19_DEG_0465.JPG,1,NA,NA,NOTHINGHERE
677,31429083,29_19_DEG_0469.JPG,29_19_DEG_0470.JPG,29_19_DEG_0471.JPG,1,NA,NA,DEERWHITETAILED
678,31429084,29_19_DEG_0472.JPG,29_19_DEG_0473.JPG,NA,1,NA,NA,DEERWHITETAILED
679,31429085,29_19_DEG_0475.JPG,29_19_DEG_0476.JPG,29_19_DEG_0477.JPG,1,NA,NA,DEERWHITETAILED
680,31429086,29_19_DEG_0478.JPG,29_19_DEG_0479.JPG,29_19_DEG_0480.JPG,1,NA,NA,DEERWHITETAILED
681,31429087,29_19_DEG_0481.JPG,29_19_DEG_0482.JPG,29_19_DEG_0483.JPG,1,NA,NA,DEERWHITETAILED
682,31429088,29_19_DEG_0484.JPG,29_19_DEG_0485.JPG,29_19_DEG_0486.JPG,1,NA,NA,DEERWHITETAILED
683,31429089,29_19_DEG_0487.JPG,29_19_DEG_0488.JPG,29_19_DEG_0489.JPG,1,NA,NA,DEERWHITETAILED
684,31429090,29_19_DEG_0490.JPG,29_19_DEG_0491.JPG,29_19_DEG_0492.JPG,1,NA,NA,DEERWHITETAILED
685,31429091,29_19_DEG_0493.JPG,29_19_DEG_0494.JPG,29_19_DEG_0495.JPG,1,NA,NA,DEERWHITETAILED
686,31429092,29_19_DEG_0496.JPG,29_19_DEG_0497.JPG,29_19_DEG_0498.JPG,1,NA,NA,DEERWHITETAILED
687,31429093,29_19_DEG_0499.JPG,29_19_DEG_0500.JPG,29_19_DEG_0501.JPG,1,NA,NA,DEERWHITETAILED
688,31429094,29_19_DEG_0502.JPG,29_19_DEG_0503.JPG,29_19_DEG_0504.JPG,1,NA,NA,DEERWHITETAILED
689,31429095,29_19_DEG_0505.JPG,29_19_DEG_0506.JPG,29_19_DEG_0507.JPG,1,NA,NA,DEERWHITETAILED
690,31429096,29_19_DEG_0508.JPG,29_19_DEG_0509.JPG,29_19_DEG_0510.JPG,1,NA,NA,DEERWHITETAILED
691,31429097,29_19_DEG_0511.JPG,29_19_DEG_0512.JPG,29_19_DEG_0513.JPG,1,NA,NA,DEERWHITETAILED
692,31429098,29_19_DEG_0514.JPG,29_19_DEG_0515.JPG,29_19_DEG_0516.JPG,1,NA,NA,DEERWHITETAILED
693,31429099,29_19_DEG_0517.JPG,29_19_DEG_0518.JPG,29_19_DEG_0519.JPG,1,NA,NA,DEERWHITETAILED
694,31429100,29_19_DEG_0520.JPG,29_19_DEG_0521.JPG,29_19_DEG_0522.JPG,1,NA,NA,DEERWHITETAILED
695,31429101,29_19_DEG_0523.JPG,29_19_DEG_0524.JPG,29_19_DEG_0525.JPG,1,NA,NA,DEERWHITETAILED
696,31429102,29_19_DEG_0526.JPG,29_19_DEG_0527.JPG,29_19_DEG_0528.JPG,1,NA,NA,DEERWHITETAILED
697,31429103,29_19_DEG_0529.JPG,29_19_DEG_0530.JPG,29_19_DEG_0531.JPG,1,NA,NA,DEERWHITETAILED
698,31429104,29_19_DEG_0532.JPG,29_19_DEG_0533.JPG,29_19_DEG_0534.JPG,1,NA,NA,DEERWHITETAILED
699,31429105,29_19_DEG_0535.JPG,29_19_DEG_0536.JPG,29_19_DEG_0537.JPG,1,NA,NA,DEERWHITETAILED
700,31429106,29_19_DEG_0538.JPG,29_19_DEG_0539.JPG,29_19_DEG_0540.JPG,1,NA,NA,DEERWHITETAILED
701,31429107,31_06_WHIP_0007.JPG,31_06_WHIP_0008.JPG,31_06_WHIP_0009.JPG,1,NA,NA,NOTHINGHERE
702,31429108,31_06_WHIP_0010.JPG,31_06_WHIP_0011.JPG,31_06_WHIP_0012.JPG,1,NA,NA,NOTHINGHERE
703,31429109,31_06_WHIP_0013.JPG,31_06_WHIP_0014.JPG,31_06_WHIP_0015.JPG,1,NA,NA,NOTHINGHERE
704,31429110,31_06_WHIP_0016.JPG,31_06_WHIP_0017.JPG,31_06_WHIP_0018.JPG,1,NA,NA,NOTHINGHERE
705,31429111,31_06_WHIP_0019.JPG,31_06_WHIP_0020.JPG,31_06_WHIP_0021.JPG,1,NA,NA,NOTHINGHERE
706,31429113,31_06_WHIP_0025.JPG,31_06_WHIP_0026.JPG,31_06_WHIP_0027.JPG,1,NA,NA,NOTHINGHERE
707,31429116,31_06_WHIP_0034.JPG,31_06_WHIP_0035.JPG,31_06_WHIP_0036.JPG,1,NA,NA,DEERWHITETAILED
708,31429119,31_06_WHIP_0043.JPG,31_06_WHIP_0044.JPG,31_06_WHIP_0045.JPG,1,NA,NA,NOTHINGHERE
709,31429124,31_06_WHIP_0058.JPG,31_06_WHIP_0059.JPG,31_06_WHIP_0060.JPG,1,NA,NA,NOTHINGHERE
710,31429125,31_06_WHIP_0061.JPG,31_06_WHIP_0062.JPG,31_06_WHIP_0063.JPG,1,NA,NA,HUMAN
711,31429126,31_06_WHIP_0064.JPG,31_06_WHIP_0065.JPG,31_06_WHIP_0066.JPG,1,NA,NA,NOTHINGHERE
712,31429127,31_06_WHIP_0067.JPG,31_06_WHIP_0068.JPG,NA,1,NA,NA,NOTHINGHERE
713,31429128,31_06_WHIP_0073.JPG,31_06_WHIP_0074.JPG,31_06_WHIP_0075.JPG,1,NA,NA,HUMAN
714,31429130,32_17_WHIP_0001.JPG,32_17_WHIP_0002.JPG,32_17_WHIP_0003.JPG,1,NA,NA,DEERWHITETAILED
715,31429131,32_17_WHIP_0004.JPG,32_17_WHIP_0005.JPG,32_17_WHIP_0006.JPG,1,NA,NA,DEERWHITETAILED
716,31429132,32_17_WHIP_0007.JPG,32_17_WHIP_0008.JPG,32_17_WHIP_0009.JPG,1,NA,NA,DEERWHITETAILED
717,31429133,32_17_WHIP_0010.JPG,32_17_WHIP_0011.JPG,32_17_WHIP_0012.JPG,1,NA,NA,DEERWHITETAILED
718,31429134,32_17_WHIP_0013.JPG,32_17_WHIP_0014.JPG,32_17_WHIP_0015.JPG,1,NA,NA,DEERWHITETAILED
719,31429135,32_17_WHIP_0016.JPG,32_17_WHIP_0017.JPG,32_17_WHIP_0018.JPG,1,NA,NA,DEERWHITETAILED
720,31429136,32_17_WHIP_0019.JPG,32_17_WHIP_0020.JPG,32_17_WHIP_0021.JPG,1,NA,NA,DEERWHITETAILED
721,31429137,32_17_WHIP_0022.JPG,32_17_WHIP_0023.JPG,32_17_WHIP_0024.JPG,1,NA,NA,DEERWHITETAILED
722,31429138,32_17_WHIP_0025.JPG,32_17_WHIP_0026.JPG,32_17_WHIP_0027.JPG,1,NA,NA,SQUIRRELGRAY
723,31429139,32_17_WHIP_0028.JPG,32_17_WHIP_0029.JPG,32_17_WHIP_0030.JPG,1,NA,NA,FISHER
724,31429140,32_17_WHIP_0031.JPG,32_17_WHIP_0032.JPG,32_17_WHIP_0033.JPG,1,NA,NA,SOMETHINGHERE
725,31429141,32_17_WHIP_0034.JPG,32_17_WHIP_0035.JPG,32_17_WHIP_0036.JPG,1,NA,NA,DEERWHITETAILED
726,31429142,32_17_WHIP_0037.JPG,32_17_WHIP_0038.JPG,32_17_WHIP_0039.JPG,1,NA,NA,DEERWHITETAILED
727,31429143,32_17_WHIP_0040.JPG,32_17_WHIP_0041.JPG,32_17_WHIP_0042.JPG,1,NA,NA,DEERWHITETAILED
728,31429144,32_17_WHIP_0043.JPG,32_17_WHIP_0044.JPG,32_17_WHIP_0045.JPG,1,NA,NA,SQUIRRELGRAY
729,31429145,32_17_WHIP_0046.JPG,32_17_WHIP_0047.JPG,32_17_WHIP_0048.JPG,1,NA,NA,DEERWHITETAILED
730,31429146,32_17_WHIP_0049.JPG,32_17_WHIP_0050.JPG,32_17_WHIP_0051.JPG,1,NA,NA,DEERWHITETAILED
731,31429147,32_17_WHIP_0052.JPG,32_17_WHIP_0053.JPG,32_17_WHIP_0054.JPG,1,NA,NA,DEERWHITETAILED
732,31429148,32_17_WHIP_0055.JPG,32_17_WHIP_0056.JPG,32_17_WHIP_0057.JPG,1,NA,NA,DEERWHITETAILED
733,31429149,32_17_WHIP_0058.JPG,32_17_WHIP_0059.JPG,32_17_WHIP_0060.JPG,1,NA,NA,DEERWHITETAILED
734,31429150,32_17_WHIP_0061.JPG,32_17_WHIP_0062.JPG,32_17_WHIP_0063.JPG,1,NA,NA,SOMETHINGHERE
735,31429151,32_17_WHIP_0064.JPG,32_17_WHIP_0065.JPG,32_17_WHIP_0066.JPG,1,NA,NA,DEERWHITETAILED
736,31429154,32_17_WHIP_0073.JPG,32_17_WHIP_0074.JPG,32_17_WHIP_0075.JPG,1,NA,NA,HUMAN
737,31429155,33_01_WF_0001.JPG,33_01_WF_0002.JPG,33_01_WF_0003.JPG,1,NA,NA,HUMAN
738,31429157,33_01_WF_0007.JPG,33_01_WF_0008.JPG,33_01_WF_0009.JPG,1,NA,NA,NOTHINGHERE
739,31429158,33_01_WF_0010.JPG,33_01_WF_0011.JPG,33_01_WF_0012.JPG,1,NA,NA,DEERWHITETAILED
740,31429159,33_01_WF_0013.JPG,33_01_WF_0014.JPG,33_01_WF_0015.JPG,1,NA,NA,DEERWHITETAILED
741,31429160,33_01_WF_0016.JPG,33_01_WF_0017.JPG,33_01_WF_0018.JPG,1,NA,NA,DEERWHITETAILED
742,31429162,33_01_WF_0022.JPG,33_01_WF_0023.JPG,33_01_WF_0024.JPG,1,NA,NA,SOMETHINGHERE
743,31429163,33_01_WF_0025.JPG,33_01_WF_0026.JPG,33_01_WF_0027.JPG,1,NA,NA,DEERWHITETAILED
744,31429164,33_01_WF_0028.JPG,33_01_WF_0029.JPG,33_01_WF_0030.JPG,1,NA,NA,DEERWHITETAILED
745,31429165,33_01_WF_0031.JPG,33_01_WF_0032.JPG,NA,1,NA,NA,DEERWHITETAILED
746,31429166,33_01_WF_0037.JPG,33_01_WF_0038.JPG,33_01_WF_0039.JPG,1,NA,NA,DEERWHITETAILED
747,31429167,33_01_WF_0040.JPG,33_01_WF_0041.JPG,33_01_WF_0042.JPG,1,NA,NA,DEERWHITETAILED
748,31429168,33_01_WF_0043.JPG,33_01_WF_0044.JPG,33_01_WF_0045.JPG,1,NA,NA,DEERWHITETAILED
749,31429171,33_01_WF_0052.JPG,33_01_WF_0053.JPG,33_01_WF_0054.JPG,1,NA,NA,DEERWHITETAILED
750,31429172,33_01_WF_0055.JPG,33_01_WF_0056.JPG,33_01_WF_0057.JPG,1,NA,NA,DEERWHITETAILED
751,31429175,33_01_WF_0064.JPG,33_01_WF_0065.JPG,33_01_WF_0066.JPG,1,NA,NA,DEERWHITETAILED
752,31429177,33_01_WF_0070.JPG,33_01_WF_0071.JPG,33_01_WF_0072.JPG,1,NA,NA,FISHER
753,31429178,33_01_WF_0073.JPG,33_01_WF_0074.JPG,33_01_WF_0075.JPG,1,NA,NA,DEERWHITETAILED
754,31429179,33_01_WF_0079.JPG,33_01_WF_0080.JPG,33_01_WF_0081.JPG,1,NA,NA,DEERWHITETAILED
755,31429180,33_01_WF_0082.JPG,33_01_WF_0083.JPG,33_01_WF_0084.JPG,1,NA,NA,DEERWHITETAILED
756,31429181,33_01_WF_0085.JPG,33_01_WF_0086.JPG,33_01_WF_0087.JPG,1,NA,NA,DEERWHITETAILED
757,31429182,33_01_WF_0088.JPG,33_01_WF_0089.JPG,33_01_WF_0090.JPG,1,NA,NA,DEERWHITETAILED
758,31429183,33_01_WF_0091.JPG,33_01_WF_0092.JPG,33_01_WF_0093.JPG,1,NA,NA,DEERWHITETAILED
759,31429184,33_01_WF_0094.JPG,33_01_WF_0095.JPG,33_01_WF_0096.JPG,1,NA,NA,DEERWHITETAILED
760,31429185,33_01_WF_0097.JPG,33_01_WF_0098.JPG,33_01_WF_0099.JPG,1,NA,NA,DEERWHITETAILED
761,31429186,33_01_WF_0100.JPG,33_01_WF_0101.JPG,33_01_WF_0102.JPG,1,NA,NA,DEERWHITETAILED
762,31429187,33_01_WF_0103.JPG,33_01_WF_0104.JPG,33_01_WF_0105.JPG,1,NA,NA,DEERWHITETAILED
763,31429188,33_01_WF_0106.JPG,33_01_WF_0107.JPG,33_01_WF_0108.JPG,1,NA,NA,DEERWHITETAILED
764,31429189,33_01_WF_0109.JPG,33_01_WF_0110.JPG,33_01_WF_0111.JPG,1,NA,NA,SOMETHINGHERE
765,31429190,33_01_WF_0112.JPG,33_01_WF_0113.JPG,33_01_WF_0114.JPG,1,NA,NA,DEERWHITETAILED
766,31429191,33_01_WF_0115.JPG,33_01_WF_0116.JPG,33_01_WF_0117.JPG,1,NA,NA,DEERWHITETAILED
767,31429193,33_01_WF_0121.JPG,33_01_WF_0122.JPG,33_01_WF_0123.JPG,1,NA,NA,DEERWHITETAILED
768,31429194,33_01_WF_0124.JPG,33_01_WF_0125.JPG,33_01_WF_0126.JPG,1,NA,NA,DEERWHITETAILED
769,31429196,33_01_WF_0130.JPG,33_01_WF_0131.JPG,33_01_WF_0132.JPG,1,NA,NA,DEERWHITETAILED
770,31429198,33_01_WF_0136.JPG,33_01_WF_0137.JPG,33_01_WF_0138.JPG,1,NA,NA,DEERWHITETAILED
771,31429199,33_01_WF_0139.JPG,33_01_WF_0140.JPG,NA,1,NA,NA,DEERWHITETAILED
772,31429200,33_01_WF_0145.JPG,33_01_WF_0146.JPG,33_01_WF_0147.JPG,1,NA,NA,DEERWHITETAILED
773,31429201,33_01_WF_0148.JPG,33_01_WF_0149.JPG,NA,1,NA,NA,DEERWHITETAILED
774,31429202,33_01_WF_0154.JPG,33_01_WF_0155.JPG,33_01_WF_0156.JPG,1,NA,NA,DEERWHITETAILED
775,31429203,33_01_WF_0157.JPG,33_01_WF_0158.JPG,33_01_WF_0159.JPG,1,NA,NA,DEERWHITETAILED
776,31429204,33_01_WF_0160.JPG,33_01_WF_0161.JPG,33_01_WF_0162.JPG,1,NA,NA,DEERWHITETAILED
777,31429205,33_01_WF_0163.JPG,33_01_WF_0164.JPG,33_01_WF_0165.JPG,1,NA,NA,DEERWHITETAILED
778,31429206,33_01_WF_0166.JPG,33_01_WF_0167.JPG,33_01_WF_0168.JPG,1,NA,NA,DEERWHITETAILED
779,31429207,33_01_WF_0169.JPG,33_01_WF_0170.JPG,33_01_WF_0171.JPG,1,NA,NA,DEERWHITETAILED
780,31429208,33_01_WF_0172.JPG,33_01_WF_0173.JPG,33_01_WF_0174.JPG,1,NA,NA,DEERWHITETAILED
781,31429209,33_01_WF_0175.JPG,33_01_WF_0176.JPG,33_01_WF_0177.JPG,1,NA,NA,DEERWHITETAILED
782,31429210,33_01_WF_0178.JPG,33_01_WF_0179.JPG,33_01_WF_0180.JPG,1,NA,NA,NOTHINGHERE
783,31429211,33_01_WF_0181.JPG,33_01_WF_0182.JPG,33_01_WF_0183.JPG,1,NA,NA,NOTHINGHERE
784,31429214,33_01_WF_0190.JPG,33_01_WF_0191.JPG,33_01_WF_0192.JPG,1,NA,NA,DEERWHITETAILED
785,31429215,33_01_WF_0193.JPG,33_01_WF_0194.JPG,33_01_WF_0195.JPG,1,NA,NA,DEERWHITETAILED
786,31429217,33_01_WF_0199.JPG,33_01_WF_0200.JPG,33_01_WF_0201.JPG,1,NA,NA,DEERWHITETAILED
787,31429218,33_01_WF_0202.JPG,33_01_WF_0203.JPG,33_01_WF_0204.JPG,1,NA,NA,DEERWHITETAILED
788,31429219,33_01_WF_0205.JPG,33_01_WF_0206.JPG,33_01_WF_0207.JPG,1,NA,NA,HUMAN
789,37156528,02_42_WHIP_000001.JPG,02_42_WHIP_000002.JPG,02_42_WHIP_000003.JPG,2,NA,NA,HUMAN
790,37156529,02_42_WHIP_000004.JPG,02_42_WHIP_000005.JPG,02_42_WHIP_000006.JPG,2,NA,NA,DEERWHITETAILED
791,37156530,02_42_WHIP_000007.JPG,02_42_WHIP_000008.JPG,02_42_WHIP_000009.JPG,2,NA,NA,FISHER
792,37156531,02_42_WHIP_000010.JPG,02_42_WHIP_000011.JPG,02_42_WHIP_000012.JPG,2,NA,NA,DEERWHITETAILED
793,37156532,02_42_WHIP_000013.JPG,02_42_WHIP_000014.JPG,02_42_WHIP_000015.JPG,2,NA,NA,DEERWHITETAILED
794,37156533,02_42_WHIP_000016.JPG,02_42_WHIP_000017.JPG,02_42_WHIP_000018.JPG,2,NA,NA,NOTHINGHERE
795,37156534,02_42_WHIP_000019.JPG,02_42_WHIP_000020.JPG,NA,2,NA,NA,NOTHINGHERE
796,37156535,02_42_WHIP_000022.JPG,02_42_WHIP_000023.JPG,NA,2,NA,NA,DEERWHITETAILED
797,37156536,02_42_WHIP_000025.JPG,02_42_WHIP_000026.JPG,NA,2,NA,NA,DEERWHITETAILED
798,37156537,02_42_WHIP_000028.JPG,02_42_WHIP_000029.JPG,NA,2,NA,NA,DEERWHITETAILED
799,37156538,02_42_WHIP_000034.JPG,02_42_WHIP_000035.JPG,02_42_WHIP_000036.JPG,2,NA,NA,DEERWHITETAILED
800,37156539,02_42_WHIP_000037.JPG,02_42_WHIP_000038.JPG,02_42_WHIP_000039.JPG,2,NA,NA,NOTHINGHERE
801,37156540,02_42_WHIP_000040.JPG,02_42_WHIP_000041.JPG,02_42_WHIP_000042.JPG,2,NA,NA,DEERWHITETAILED
802,37156542,02_42_WHIP_000046.JPG,02_42_WHIP_000047.JPG,02_42_WHIP_000048.JPG,2,NA,NA,DEERWHITETAILED
803,37156543,02_42_WHIP_000049.JPG,02_42_WHIP_000050.JPG,02_42_WHIP_000051.JPG,2,NA,NA,DEERWHITETAILED
804,37156544,02_42_WHIP_000052.JPG,02_42_WHIP_000053.JPG,02_42_WHIP_000054.JPG,2,NA,NA,HUMAN
805,37156545,02_42_WHIP_000055.JPG,02_42_WHIP_000056.JPG,02_42_WHIP_000057.JPG,2,NA,NA,HUMAN
806,37156548,02_42_WHIP_000064.JPG,02_42_WHIP_000065.JPG,02_42_WHIP_000066.JPG,2,NA,NA,DEERWHITETAILED
807,37156550,02_42_WHIP_000067.JPG,02_42_WHIP_000068.JPG,02_42_WHIP_000069.JPG,2,NA,NA,DEERWHITETAILED
808,37156551,02_42_WHIP_000070.JPG,02_42_WHIP_000071.JPG,02_42_WHIP_000072.JPG,2,NA,NA,DEERWHITETAILED
809,37156552,02_42_WHIP_000073.JPG,02_42_WHIP_000074.JPG,02_42_WHIP_000075.JPG,2,NA,NA,RACCOON
810,37156553,02_42_WHIP_000076.JPG,02_42_WHIP_000077.JPG,02_42_WHIP_000078.JPG,2,NA,NA,DEERWHITETAILED
811,37156554,02_42_WHIP_000079.JPG,02_42_WHIP_000080.JPG,02_42_WHIP_000081.JPG,2,NA,NA,SOMETHINGHERE
812,37156555,02_42_WHIP_000082.JPG,02_42_WHIP_000083.JPG,02_42_WHIP_000084.JPG,2,NA,NA,RACCOON
813,37156556,02_42_WHIP_000085.JPG,02_42_WHIP_000086.JPG,02_42_WHIP_000087.JPG,2,NA,NA,SOMETHINGHERE
814,37156557,02_42_WHIP_000088.JPG,02_42_WHIP_000089.JPG,02_42_WHIP_000090.JPG,2,NA,NA,DEERWHITETAILED
815,37156558,02_42_WHIP_000091.JPG,02_42_WHIP_000092.JPG,02_42_WHIP_000093.JPG,2,NA,NA,DEERWHITETAILED
816,37156559,02_42_WHIP_000094.JPG,02_42_WHIP_000095.JPG,NA,2,NA,NA,TURKEY
817,37156561,02_42_WHIP_000100.JPG,02_42_WHIP_000101.JPG,02_42_WHIP_000102.JPG,2,NA,NA,DEERWHITETAILED
818,37156562,02_42_WHIP_000103.JPG,02_42_WHIP_000104.JPG,02_42_WHIP_000105.JPG,2,NA,NA,NOTHINGHERE
819,37156563,03_07_SH_000001.JPG,03_07_SH_000002.JPG,03_07_SH_000003.JPG,2,NA,NA,NOTHINGHERE
820,37156565,03_07_SH_000007.JPG,03_07_SH_000008.JPG,03_07_SH_000009.JPG,2,NA,NA,DEERWHITETAILED
821,37156566,03_07_SH_000010.JPG,03_07_SH_000011.JPG,03_07_SH_000012.JPG,2,NA,NA,DEERWHITETAILED
822,37156567,03_07_SH_000013.JPG,03_07_SH_000014.JPG,03_07_SH_000015.JPG,2,NA,NA,DEERWHITETAILED
823,37156568,03_07_SH_000016.JPG,03_07_SH_000017.JPG,03_07_SH_000018.JPG,2,NA,NA,NOTHINGHERE
824,37156569,03_07_SH_000019.JPG,03_07_SH_000020.JPG,03_07_SH_000021.JPG,2,NA,NA,DEERWHITETAILED
825,37156570,03_07_SH_000022.JPG,03_07_SH_000023.JPG,03_07_SH_000024.JPG,2,NA,NA,DEERWHITETAILED
826,37156571,03_07_SH_000025.JPG,03_07_SH_000026.JPG,03_07_SH_000027.JPG,2,NA,NA,DEERWHITETAILED
827,37156572,03_07_SH_000028.JPG,03_07_SH_000029.JPG,03_07_SH_000030.JPG,2,NA,NA,DEERWHITETAILED
828,37156573,03_07_SH_000031.JPG,03_07_SH_000032.JPG,03_07_SH_000033.JPG,2,NA,NA,DEERWHITETAILED
829,37156574,03_07_SH_000036.JPG,03_07_SH_000034.JPG,03_07_SH_000035.JPG,2,NA,NA,NOTHINGHERE
830,37156575,03_07_SH_000037.JPG,03_07_SH_000038.JPG,03_07_SH_000039.JPG,2,NA,NA,NOTHINGHERE
831,37156576,03_07_SH_000040.JPG,03_07_SH_000041.JPG,03_07_SH_000042.JPG,2,NA,NA,NOTHINGHERE
832,37156577,03_07_SH_000043.JPG,03_07_SH_000044.JPG,03_07_SH_000045.JPG,2,NA,NA,NOTHINGHERE
833,37156578,03_07_SH_000046.JPG,03_07_SH_000047.JPG,03_07_SH_000048.JPG,2,NA,NA,NOTHINGHERE
834,37156579,03_07_SH_000049.JPG,03_07_SH_000050.JPG,03_07_SH_000051.JPG,2,NA,NA,NOTHINGHERE
835,37156580,03_07_SH_000052.JPG,03_07_SH_000053.JPG,03_07_SH_000054.JPG,2,NA,NA,NOTHINGHERE
836,37156581,03_07_SH_000055.JPG,03_07_SH_000056.JPG,03_07_SH_000057.JPG,2,NA,NA,DEERWHITETAILED
837,37156582,03_07_SH_000058.JPG,03_07_SH_000059.JPG,03_07_SH_000060.JPG,2,NA,NA,DEERWHITETAILED
838,37156583,03_07_SH_000061.JPG,03_07_SH_000062.JPG,03_07_SH_000063.JPG,2,NA,NA,DEERWHITETAILED
839,37156584,03_07_SH_000064.JPG,03_07_SH_000065.JPG,03_07_SH_000066.JPG,2,NA,NA,DEERWHITETAILED
840,37156585,03_07_SH_000067.JPG,03_07_SH_000068.JPG,03_07_SH_000069.JPG,2,NA,NA,DEERWHITETAILED
841,37156586,03_07_SH_000070.JPG,03_07_SH_000071.JPG,03_07_SH_000072.JPG,2,NA,NA,DEERWHITETAILED
842,37156589,03_07_SH_000079.JPG,03_07_SH_000080.JPG,03_07_SH_000081.JPG,2,NA,NA,DEERWHITETAILED
843,37156590,03_07_SH_000082.JPG,03_07_SH_000083.JPG,03_07_SH_000084.JPG,2,NA,NA,DEERWHITETAILED
844,37156591,03_07_SH_000085.JPG,03_07_SH_000086.JPG,03_07_SH_000087.JPG,2,NA,NA,DEERWHITETAILED
845,37156592,03_07_SH_000088.JPG,03_07_SH_000089.JPG,03_07_SH_000090.JPG,2,NA,NA,DEERWHITETAILED
846,37156593,03_07_SH_000091.JPG,03_07_SH_000092.JPG,03_07_SH_000093.JPG,2,NA,NA,DEERWHITETAILED
847,37156594,03_07_SH_000094.JPG,03_07_SH_000095.JPG,03_07_SH_000096.JPG,2,NA,NA,DEERWHITETAILED
848,37156595,03_07_SH_000097.JPG,03_07_SH_000098.JPG,03_07_SH_000099.JPG,2,NA,NA,DEERWHITETAILED
849,37156596,03_07_SH_000100.JPG,03_07_SH_000101.JPG,03_07_SH_000102.JPG,2,NA,NA,DEERWHITETAILED
850,37156597,03_07_SH_000103.JPG,03_07_SH_000104.JPG,03_07_SH_000105.JPG,2,NA,NA,DEERWHITETAILED
851,37156598,03_07_SH_000109.JPG,03_07_SH_000110.JPG,03_07_SH_000111.JPG,2,NA,NA,DEERWHITETAILED
852,37156599,03_07_SH_000112.JPG,03_07_SH_000113.JPG,03_07_SH_000114.JPG,2,NA,NA,DEERWHITETAILED
853,37156600,03_07_SH_000115.JPG,03_07_SH_000116.JPG,03_07_SH_000117.JPG,2,NA,NA,DEERWHITETAILED
854,37156601,03_07_SH_000118.JPG,03_07_SH_000119.JPG,03_07_SH_000120.JPG,2,NA,NA,DEERWHITETAILED
855,37156602,03_07_SH_000121.JPG,03_07_SH_000122.JPG,03_07_SH_000123.JPG,2,NA,NA,DEERWHITETAILED
856,37156603,03_07_SH_000124.JPG,03_07_SH_000125.JPG,03_07_SH_000126.JPG,2,NA,NA,NOTHINGHERE
857,37156604,03_07_SH_000127.JPG,03_07_SH_000128.JPG,03_07_SH_000129.JPG,2,NA,NA,SOMETHINGHERE
858,37156605,04_36_WF_000001.JPG,04_36_WF_000002.JPG,04_36_WF_000003.JPG,2,NA,NA,NOTHINGHERE
859,37156606,04_36_WF_000004.JPG,04_36_WF_000005.JPG,04_36_WF_000006.JPG,2,NA,NA,NOTHINGHERE
860,37156607,04_36_WF_000007.JPG,04_36_WF_000008.JPG,04_36_WF_000009.JPG,2,NA,NA,SOMETHINGHERE
861,37156608,04_36_WF_000010.JPG,04_36_WF_000011.JPG,04_36_WF_000012.JPG,2,NA,NA,NOTHINGHERE
862,37156609,04_36_WF_000013.JPG,04_36_WF_000014.JPG,04_36_WF_000015.JPG,2,NA,NA,NOTHINGHERE
863,37156610,04_36_WF_000016.JPG,04_36_WF_000017.JPG,04_36_WF_000018.JPG,2,NA,NA,NOTHINGHERE
864,37156611,04_36_WF_000019.JPG,04_36_WF_000020.JPG,04_36_WF_000021.JPG,2,NA,NA,DEERWHITETAILED
865,37156612,04_36_WF_000022.JPG,04_36_WF_000023.JPG,04_36_WF_000024.JPG,2,NA,NA,DEERWHITETAILED
866,37156613,04_36_WF_000025.JPG,04_36_WF_000026.JPG,04_36_WF_000027.JPG,2,NA,NA,DEERWHITETAILED
867,37156614,04_36_WF_000028.JPG,04_36_WF_000029.JPG,04_36_WF_000030.JPG,2,NA,NA,DEERWHITETAILED
868,37156615,04_36_WF_000031.JPG,04_36_WF_000032.JPG,04_36_WF_000033.JPG,2,NA,NA,DEERWHITETAILED
869,37156616,04_36_WF_000034.JPG,04_36_WF_000035.JPG,04_36_WF_000036.JPG,2,NA,NA,NOTHINGHERE
870,37156617,04_36_WF_000037.JPG,04_36_WF_000038.JPG,04_36_WF_000039.JPG,2,NA,NA,DEERWHITETAILED
871,37156618,04_36_WF_000040.JPG,04_36_WF_000041.JPG,04_36_WF_000042.JPG,2,NA,NA,DEERWHITETAILED
872,37156619,04_36_WF_000043.JPG,04_36_WF_000044.JPG,04_36_WF_000045.JPG,2,NA,NA,DEERWHITETAILED
873,37156620,04_36_WF_000046.JPG,04_36_WF_000047.JPG,04_36_WF_000048.JPG,2,NA,NA,DEERWHITETAILED
874,37156622,04_36_WF_000052.JPG,04_36_WF_000053.JPG,04_36_WF_000054.JPG,2,NA,NA,DEERWHITETAILED
875,37156623,04_36_WF_000055.JPG,04_36_WF_000056.JPG,04_36_WF_000057.JPG,2,NA,NA,SOMETHINGHERE
876,37156624,04_36_WF_000058.JPG,04_36_WF_000059.JPG,04_36_WF_000060.JPG,2,NA,NA,DEERWHITETAILED
877,37156625,04_36_WF_000061.JPG,04_36_WF_000062.JPG,04_36_WF_000063.JPG,2,NA,NA,DEERWHITETAILED
878,37156626,04_36_WF_000064.JPG,04_36_WF_000065.JPG,04_36_WF_000066.JPG,2,NA,NA,DEERWHITETAILED
879,37156627,04_36_WF_000067.JPG,04_36_WF_000068.JPG,04_36_WF_000069.JPG,2,NA,NA,DEERWHITETAILED
880,37156628,04_36_WF_000070.JPG,04_36_WF_000071.JPG,04_36_WF_000072.JPG,2,NA,NA,SOMETHINGHERE
881,37156629,04_36_WF_000082.JPG,04_36_WF_000083.JPG,NA,2,NA,NA,DEERWHITETAILED
882,37156630,04_36_WF_000085.JPG,04_36_WF_000086.JPG,NA,2,NA,NA,DEERWHITETAILED
883,37156633,04_36_WF_000097.JPG,04_36_WF_000098.JPG,NA,2,NA,NA,DEERWHITETAILED
884,37156634,04_36_WF_000100.JPG,04_36_WF_000101.JPG,04_36_WF_000102.JPG,2,NA,NA,DEERWHITETAILED
885,37156635,04_36_WF_000103.JPG,04_36_WF_000104.JPG,04_36_WF_000105.JPG,2,NA,NA,DEERWHITETAILED
886,37156636,04_36_WF_000106.JPG,04_36_WF_000107.JPG,NA,2,NA,NA,DEERWHITETAILED
887,37156637,04_36_WF_000109.JPG,04_36_WF_000110.JPG,04_36_WF_000111.JPG,2,NA,NA,DEERWHITETAILED
888,37156638,04_36_WF_000112.JPG,04_36_WF_000113.JPG,04_36_WF_000114.JPG,2,NA,NA,DEERWHITETAILED
889,37156639,04_36_WF_000115.JPG,04_36_WF_000116.JPG,04_36_WF_000117.JPG,2,NA,NA,NOTHINGHERE
890,37156640,04_36_WF_000118.JPG,04_36_WF_000119.JPG,04_36_WF_000120.JPG,2,NA,NA,DEERWHITETAILED
891,37156641,04_36_WF_000121.JPG,04_36_WF_000122.JPG,04_36_WF_000123.JPG,2,NA,NA,DEERWHITETAILED
892,37156642,04_36_WF_000124.JPG,04_36_WF_000125.JPG,04_36_WF_000126.JPG,2,NA,NA,NOTHINGHERE
893,37156643,04_36_WF_000127.JPG,04_36_WF_000128.JPG,04_36_WF_000129.JPG,2,NA,NA,FISHER
894,37156644,04_36_WF_000130.JPG,04_36_WF_000131.JPG,04_36_WF_000132.JPG,2,NA,NA,TURKEY
895,37156645,04_36_WF_000133.JPG,04_36_WF_000134.JPG,04_36_WF_000135.JPG,2,NA,NA,DEERWHITETAILED
896,37156646,04_36_WF_000136.JPG,04_36_WF_000137.JPG,04_36_WF_000138.JPG,2,NA,NA,DEERWHITETAILED
897,37156648,04_36_WF_000142.JPG,04_36_WF_000143.JPG,04_36_WF_000144.JPG,2,NA,NA,NOTHINGHERE
898,37156649,04_36_WF_000145.JPG,04_36_WF_000146.JPG,04_36_WF_000147.JPG,2,NA,NA,DEERWHITETAILED
899,37156650,06_09_DON_000001 (2).JPG,06_09_DON_000002 (2).JPG,06_09_DON_000003 (2).JPG,2,NA,NA,NOTHINGHERE
900,37156651,06_09_DON_000001.JPG,06_09_DON_000002.JPG,06_09_DON_000003.JPG,2,NA,NA,NOTHINGHERE
901,37156652,06_09_DON_000004 (2).JPG,06_09_DON_000005 (2).JPG,06_09_DON_000006 (2).JPG,2,NA,NA,NOTHINGHERE
902,37156653,06_09_DON_000004.JPG,06_09_DON_000005.JPG,06_09_DON_000006.JPG,2,NA,NA,NOTHINGHERE
903,37156654,06_09_DON_000007 (2).JPG,06_09_DON_000008 (2).JPG,06_09_DON_000009 (2).JPG,2,NA,NA,NOTHINGHERE
904,37156655,06_09_DON_000007.JPG,06_09_DON_000008.JPG,06_09_DON_000009.JPG,2,NA,NA,NOTHINGHERE
905,37156656,06_09_DON_000010 (2).JPG,06_09_DON_000011 (2).JPG,06_09_DON_000012 (2).JPG,2,NA,NA,NOTHINGHERE
906,37156657,06_09_DON_000010.JPG,06_09_DON_000011.JPG,06_09_DON_000012.JPG,2,NA,NA,NOTHINGHERE
907,37156658,06_09_DON_000013 (2).JPG,06_09_DON_000014 (2).JPG,06_09_DON_000015 (2).JPG,2,NA,NA,NOTHINGHERE
908,37156659,06_09_DON_000013.JPG,06_09_DON_000014.JPG,06_09_DON_000015.JPG,2,NA,NA,NOTHINGHERE
909,37156660,06_09_DON_000016 (2).JPG,06_09_DON_000017 (2).JPG,06_09_DON_000018 (2).JPG,2,NA,NA,NOTHINGHERE
910,37156661,06_09_DON_000016.JPG,06_09_DON_000017.JPG,06_09_DON_000018.JPG,2,NA,NA,NOTHINGHERE
911,37156662,06_09_DON_000019 (2).JPG,06_09_DON_000020 (2).JPG,06_09_DON_000021 (2).JPG,2,NA,NA,NOTHINGHERE
912,37156663,06_09_DON_000019.JPG,06_09_DON_000020.JPG,06_09_DON_000021.JPG,2,NA,NA,NOTHINGHERE
913,37156664,06_09_DON_000022 (2).JPG,06_09_DON_000023 (2).JPG,06_09_DON_000024 (2).JPG,2,NA,NA,NOTHINGHERE
914,37156665,06_09_DON_000024.JPG,06_09_DON_000022.JPG,06_09_DON_000023.JPG,2,NA,NA,NOTHINGHERE
915,37156666,06_09_DON_000025 (2).JPG,06_09_DON_000026 (2).JPG,06_09_DON_000027 (2).JPG,2,NA,NA,NOTHINGHERE
916,37156667,06_09_DON_000025.JPG,06_09_DON_000026.JPG,06_09_DON_000027.JPG,2,NA,NA,NOTHINGHERE
917,37156668,06_09_DON_000028 (2).JPG,06_09_DON_000029 (2).JPG,06_09_DON_000030 (2).JPG,2,NA,NA,NOTHINGHERE
918,37156669,06_09_DON_000028.JPG,06_09_DON_000029.JPG,06_09_DON_000030.JPG,2,NA,NA,NOTHINGHERE
919,37156670,06_09_DON_000031 (2).JPG,06_09_DON_000032 (2).JPG,06_09_DON_000033 (2).JPG,2,NA,NA,NOTHINGHERE
920,37156671,06_09_DON_000031.JPG,06_09_DON_000032.JPG,06_09_DON_000033.JPG,2,NA,NA,NOTHINGHERE
921,37156672,06_09_DON_000034 (2).JPG,06_09_DON_000035 (2).JPG,06_09_DON_000036 (2).JPG,2,NA,NA,NOTHINGHERE
922,37156673,06_09_DON_000034.JPG,06_09_DON_000035.JPG,06_09_DON_000036.JPG,2,NA,NA,NOTHINGHERE
923,37156675,06_09_DON_000037.JPG,06_09_DON_000038.JPG,06_09_DON_000039.JPG,2,NA,NA,NOTHINGHERE
924,37156676,06_09_DON_000040 (2).JPG,06_09_DON_000041 (2).JPG,06_09_DON_000042 (2).JPG,2,NA,NA,NOTHINGHERE
925,37156677,06_09_DON_000040.JPG,06_09_DON_000041.JPG,06_09_DON_000042.JPG,2,NA,NA,NOTHINGHERE
926,37156678,06_09_DON_000043 (2).JPG,06_09_DON_000044 (2).JPG,06_09_DON_000045 (2).JPG,2,NA,NA,NOTHINGHERE
927,37156679,06_09_DON_000043.JPG,06_09_DON_000044.JPG,06_09_DON_000045.JPG,2,NA,NA,NOTHINGHERE
928,37156680,06_09_DON_000046 (2).JPG,06_09_DON_000047 (2).JPG,06_09_DON_000048 (2).JPG,2,NA,NA,NOTHINGHERE
929,37156681,06_09_DON_000046.JPG,06_09_DON_000047.JPG,06_09_DON_000048.JPG,2,NA,NA,NOTHINGHERE
930,37156682,06_09_DON_000049 (2).JPG,06_09_DON_000050 (2).JPG,06_09_DON_000051 (2).JPG,2,NA,NA,NOTHINGHERE
931,37156683,06_09_DON_000049.JPG,06_09_DON_000050.JPG,06_09_DON_000051.JPG,2,NA,NA,NOTHINGHERE
932,37156684,06_09_DON_000052 (2).JPG,06_09_DON_000053 (2).JPG,06_09_DON_000054 (2).JPG,2,NA,NA,NOTHINGHERE
933,37156685,06_09_DON_000052.JPG,06_09_DON_000053.JPG,06_09_DON_000054.JPG,2,NA,NA,NOTHINGHERE
934,37156686,06_09_DON_000055 (2).JPG,06_09_DON_000056 (2).JPG,06_09_DON_000057 (2).JPG,2,NA,NA,NOTHINGHERE
935,37156687,06_09_DON_000055.JPG,06_09_DON_000056.JPG,06_09_DON_000057.JPG,2,NA,NA,NOTHINGHERE
936,37156688,06_09_DON_000058 (2).JPG,06_09_DON_000059 (2).JPG,06_09_DON_000060 (2).JPG,2,NA,NA,NOTHINGHERE
937,37156689,06_09_DON_000058.JPG,06_09_DON_000059.JPG,06_09_DON_000060.JPG,2,NA,NA,NOTHINGHERE
938,37156690,06_09_DON_000061 (2).JPG,06_09_DON_000062 (2).JPG,06_09_DON_000063 (2).JPG,2,NA,NA,NOTHINGHERE
939,37156691,06_09_DON_000061.JPG,06_09_DON_000062.JPG,06_09_DON_000063.JPG,2,NA,NA,NOTHINGHERE
940,37156692,06_09_DON_000064 (2).JPG,06_09_DON_000065 (2).JPG,06_09_DON_000066 (2).JPG,2,NA,NA,NOTHINGHERE
941,37156693,06_09_DON_000064.JPG,06_09_DON_000065.JPG,06_09_DON_000066.JPG,2,NA,NA,NOTHINGHERE
942,37156694,06_09_DON_000067 (2).JPG,06_09_DON_000068 (2).JPG,06_09_DON_000069 (2).JPG,2,NA,NA,NOTHINGHERE
943,37156695,06_09_DON_000067.JPG,06_09_DON_000068.JPG,06_09_DON_000069.JPG,2,NA,NA,NOTHINGHERE
944,37156696,06_09_DON_000070 (2).JPG,06_09_DON_000071 (2).JPG,06_09_DON_000072 (2).JPG,2,NA,NA,NOTHINGHERE
945,37156697,06_09_DON_000070.JPG,06_09_DON_000071.JPG,06_09_DON_000072.JPG,2,NA,NA,NOTHINGHERE
946,37156698,06_09_DON_000073 (2).JPG,06_09_DON_000074 (2).JPG,06_09_DON_000075 (2).JPG,2,NA,NA,NOTHINGHERE
947,37156699,06_09_DON_000073.JPG,06_09_DON_000074.JPG,06_09_DON_000075.JPG,2,NA,NA,NOTHINGHERE
948,37156700,06_09_DON_000076 (2).JPG,06_09_DON_000077 (2).JPG,06_09_DON_000078 (2).JPG,2,NA,NA,NOTHINGHERE
949,37156701,06_09_DON_000076.JPG,06_09_DON_000077.JPG,06_09_DON_000078.JPG,2,NA,NA,NOTHINGHERE
950,37156702,06_09_DON_000079 (2).JPG,06_09_DON_000080 (2).JPG,06_09_DON_000081 (2).JPG,2,NA,NA,NOTHINGHERE
951,37156703,06_09_DON_000079.JPG,06_09_DON_000080.JPG,06_09_DON_000081.JPG,2,NA,NA,NOTHINGHERE
952,37156704,06_09_DON_000082 (2).JPG,06_09_DON_000083 (2).JPG,06_09_DON_000084 (2).JPG,2,NA,NA,NOTHINGHERE
953,37156705,06_09_DON_000082.JPG,06_09_DON_000083.JPG,06_09_DON_000084.JPG,2,NA,NA,NOTHINGHERE
954,37156706,06_09_DON_000085 (2).JPG,06_09_DON_000086 (2).JPG,06_09_DON_000087 (2).JPG,2,NA,NA,NOTHINGHERE
955,37156707,06_09_DON_000085.JPG,06_09_DON_000086.JPG,06_09_DON_000087.JPG,2,NA,NA,NOTHINGHERE
956,37156708,06_09_DON_000088 (2).JPG,06_09_DON_000089 (2).JPG,06_09_DON_000090 (2).JPG,2,NA,NA,NOTHINGHERE
957,37156709,06_09_DON_000088.JPG,06_09_DON_000089.JPG,06_09_DON_000090.JPG,2,NA,NA,NOTHINGHERE
958,37156710,06_09_DON_000091 (2).JPG,06_09_DON_000092 (2).JPG,06_09_DON_000093 (2).JPG,2,NA,NA,NOTHINGHERE
959,37156711,06_09_DON_000091.JPG,06_09_DON_000092.JPG,06_09_DON_000093.JPG,2,NA,NA,NOTHINGHERE
960,37156712,06_09_DON_000094 (2).JPG,06_09_DON_000095 (2).JPG,06_09_DON_000096 (2).JPG,2,NA,NA,NOTHINGHERE
961,37156713,06_09_DON_000094.JPG,06_09_DON_000095.JPG,06_09_DON_000096.JPG,2,NA,NA,NOTHINGHERE
962,37156714,06_09_DON_000097 (2).JPG,06_09_DON_000098 (2).JPG,06_09_DON_000099 (2).JPG,2,NA,NA,NOTHINGHERE
963,37156715,06_09_DON_000097.JPG,06_09_DON_000098.JPG,NA,2,NA,NA,NOTHINGHERE
964,37156716,06_09_DON_000100 (2).JPG,06_09_DON_000101 (2).JPG,06_09_DON_000102 (2).JPG,2,NA,NA,NOTHINGHERE
965,37156717,06_09_DON_000100.JPG,06_09_DON_000101.JPG,NA,2,NA,NA,NOTHINGHERE
966,37156718,06_09_DON_000103 (2).JPG,06_09_DON_000104 (2).JPG,06_09_DON_000105 (2).JPG,2,NA,NA,NOTHINGHERE
967,37156719,06_09_DON_000103.JPG,06_09_DON_000104.JPG,NA,2,NA,NA,NOTHINGHERE
968,37156720,06_09_DON_000106 (2).JPG,06_09_DON_000107 (2).JPG,06_09_DON_000108 (2).JPG,2,NA,NA,NOTHINGHERE
969,37156721,06_09_DON_000109 (2).JPG,06_09_DON_000110 (2).JPG,06_09_DON_000111 (2).JPG,2,NA,NA,NOTHINGHERE
970,37156722,06_09_DON_000109.JPG,06_09_DON_000110.JPG,06_09_DON_000111.JPG,2,NA,NA,NOTHINGHERE
971,37156723,06_09_DON_000112 (2).JPG,06_09_DON_000113 (2).JPG,06_09_DON_000114 (2).JPG,2,NA,NA,NOTHINGHERE
972,37156724,06_09_DON_000112.JPG,06_09_DON_000113.JPG,06_09_DON_000114.JPG,2,NA,NA,NOTHINGHERE
973,37156725,06_09_DON_000115 (2).JPG,06_09_DON_000116 (2).JPG,06_09_DON_000117 (2).JPG,2,NA,NA,NOTHINGHERE
974,37156726,06_09_DON_000115.JPG,06_09_DON_000116.JPG,06_09_DON_000117.JPG,2,NA,NA,NOTHINGHERE
975,37156727,06_09_DON_000118 (2).JPG,06_09_DON_000119 (2).JPG,06_09_DON_000120 (2).JPG,2,NA,NA,NOTHINGHERE
976,37156728,06_09_DON_000118.JPG,06_09_DON_000119.JPG,06_09_DON_000120.JPG,2,NA,NA,NOTHINGHERE
977,37156729,06_09_DON_000121 (2).JPG,06_09_DON_000122 (2).JPG,06_09_DON_000123 (2).JPG,2,NA,NA,NOTHINGHERE
978,37156730,06_09_DON_000121.JPG,06_09_DON_000122.JPG,06_09_DON_000123.JPG,2,NA,NA,NOTHINGHERE
979,37156731,06_09_DON_000124 (2).JPG,06_09_DON_000125 (2).JPG,06_09_DON_000126 (2).JPG,2,NA,NA,NOTHINGHERE
980,37156732,06_09_DON_000124.JPG,06_09_DON_000125.JPG,06_09_DON_000126.JPG,2,NA,NA,NOTHINGHERE
981,37156733,06_09_DON_000127 (2).JPG,06_09_DON_000128 (2).JPG,06_09_DON_000129 (2).JPG,2,NA,NA,NOTHINGHERE
982,37156734,06_09_DON_000127.JPG,06_09_DON_000128.JPG,06_09_DON_000129.JPG,2,NA,NA,NOTHINGHERE
983,37156735,06_09_DON_000130 (2).JPG,06_09_DON_000131 (2).JPG,06_09_DON_000132 (2).JPG,2,NA,NA,NOTHINGHERE
984,37156736,06_09_DON_000130.JPG,06_09_DON_000131.JPG,06_09_DON_000132.JPG,2,NA,NA,NOTHINGHERE
985,37156737,06_09_DON_000133 (2).JPG,06_09_DON_000134 (2).JPG,06_09_DON_000135 (2).JPG,2,NA,NA,NOTHINGHERE
986,37156738,06_09_DON_000133.JPG,06_09_DON_000134.JPG,06_09_DON_000135.JPG,2,NA,NA,NOTHINGHERE
987,37156739,06_09_DON_000136 (2).JPG,06_09_DON_000137 (2).JPG,06_09_DON_000138 (2).JPG,2,NA,NA,NOTHINGHERE
988,37156740,06_09_DON_000136.JPG,06_09_DON_000137.JPG,06_09_DON_000138.JPG,2,NA,NA,NOTHINGHERE
989,37156741,06_09_DON_000139 (2).JPG,06_09_DON_000140 (2).JPG,06_09_DON_000141 (2).JPG,2,NA,NA,NOTHINGHERE
990,37156742,06_09_DON_000139.JPG,06_09_DON_000140.JPG,06_09_DON_000141.JPG,2,NA,NA,NOTHINGHERE
991,37156743,06_09_DON_000142 (2).JPG,06_09_DON_000143 (2).JPG,06_09_DON_000144 (2).JPG,2,NA,NA,NOTHINGHERE
992,37156744,06_09_DON_000142.JPG,06_09_DON_000143.JPG,06_09_DON_000144.JPG,2,NA,NA,NOTHINGHERE
993,37156745,06_09_DON_000145 (2).JPG,06_09_DON_000146 (2).JPG,06_09_DON_000147 (2).JPG,2,NA,NA,NOTHINGHERE
994,37156746,06_09_DON_000145.JPG,06_09_DON_000146.JPG,06_09_DON_000147.JPG,2,NA,NA,NOTHINGHERE
995,37156747,06_09_DON_000148 (2).JPG,06_09_DON_000149 (2).JPG,06_09_DON_000150 (2).JPG,2,NA,NA,NOTHINGHERE
996,37156748,06_09_DON_000148.JPG,06_09_DON_000149.JPG,06_09_DON_000150.JPG,2,NA,NA,NOTHINGHERE
997,37156749,06_09_DON_000151 (2).JPG,06_09_DON_000152 (2).JPG,06_09_DON_000153 (2).JPG,2,NA,NA,NOTHINGHERE
998,37156750,06_09_DON_000151.JPG,06_09_DON_000152.JPG,06_09_DON_000153.JPG,2,NA,NA,NOTHINGHERE
999,37156751,06_09_DON_000154 (2).JPG,06_09_DON_000155 (2).JPG,06_09_DON_000156 (2).JPG,2,NA,NA,NOTHINGHERE
1000,37156752,06_09_DON_000154.JPG,06_09_DON_000155.JPG,06_09_DON_000156.JPG,2,NA,NA,NOTHINGHERE
1001,37156753,06_09_DON_000157 (2).JPG,06_09_DON_000158 (2).JPG,06_09_DON_000159 (2).JPG,2,NA,NA,NOTHINGHERE
1002,37156754,06_09_DON_000157.JPG,06_09_DON_000158.JPG,06_09_DON_000159.JPG,2,NA,NA,NOTHINGHERE
1003,37156755,06_09_DON_000160 (2).JPG,06_09_DON_000161 (2).JPG,06_09_DON_000162 (2).JPG,2,NA,NA,NOTHINGHERE
1004,37156756,06_09_DON_000160.JPG,06_09_DON_000161.JPG,06_09_DON_000162.JPG,2,NA,NA,NOTHINGHERE
1005,37156757,06_09_DON_000163 (2).JPG,06_09_DON_000164 (2).JPG,06_09_DON_000165 (2).JPG,2,NA,NA,NOTHINGHERE
1006,37156758,06_09_DON_000163.JPG,06_09_DON_000164.JPG,06_09_DON_000165.JPG,2,NA,NA,NOTHINGHERE
1007,37156759,06_09_DON_000166 (2).JPG,06_09_DON_000167 (2).JPG,06_09_DON_000168 (2).JPG,2,NA,NA,NOTHINGHERE
1008,37156760,06_09_DON_000166.JPG,06_09_DON_000167.JPG,06_09_DON_000168.JPG,2,NA,NA,NOTHINGHERE
1009,37156761,06_09_DON_000169 (2).JPG,06_09_DON_000170 (2).JPG,06_09_DON_000171 (2).JPG,2,NA,NA,NOTHINGHERE
1010,37156762,06_09_DON_000169.JPG,06_09_DON_000170.JPG,06_09_DON_000171.JPG,2,NA,NA,NOTHINGHERE
1011,37156763,06_09_DON_000172 (2).JPG,06_09_DON_000173 (2).JPG,06_09_DON_000174 (2).JPG,2,NA,NA,NOTHINGHERE
1012,37156764,06_09_DON_000172.JPG,06_09_DON_000173.JPG,06_09_DON_000174.JPG,2,NA,NA,NOTHINGHERE
1013,37156765,06_09_DON_000175 (2).JPG,06_09_DON_000176 (2).JPG,06_09_DON_000177 (2).JPG,2,NA,NA,NOTHINGHERE
1014,37156766,06_09_DON_000175.JPG,06_09_DON_000176.JPG,06_09_DON_000177.JPG,2,NA,NA,NOTHINGHERE
1015,37156767,06_09_DON_000178 (2).JPG,06_09_DON_000179 (2).JPG,06_09_DON_000180 (2).JPG,2,NA,NA,NOTHINGHERE
1016,37156768,06_09_DON_000178.JPG,06_09_DON_000179.JPG,06_09_DON_000180.JPG,2,NA,NA,NOTHINGHERE
1017,37156769,06_09_DON_000181 (2).JPG,06_09_DON_000182 (2).JPG,06_09_DON_000183 (2).JPG,2,NA,NA,NOTHINGHERE
1018,37156770,06_09_DON_000181.JPG,06_09_DON_000182.JPG,06_09_DON_000183.JPG,2,NA,NA,NOTHINGHERE
1019,37156771,06_09_DON_000184 (2).JPG,06_09_DON_000185 (2).JPG,06_09_DON_000186 (2).JPG,2,NA,NA,NOTHINGHERE
1020,37156772,06_09_DON_000184.JPG,06_09_DON_000185.JPG,06_09_DON_000186.JPG,2,NA,NA,NOTHINGHERE
1021,37156773,06_09_DON_000187 (2).JPG,06_09_DON_000188 (2).JPG,06_09_DON_000189 (2).JPG,2,NA,NA,NOTHINGHERE
1022,37156774,06_09_DON_000187.JPG,06_09_DON_000188.JPG,06_09_DON_000189.JPG,2,NA,NA,NOTHINGHERE
1023,37156775,06_09_DON_000190 (2).JPG,06_09_DON_000191 (2).JPG,06_09_DON_000192 (2).JPG,2,NA,NA,NOTHINGHERE
1024,37156776,06_09_DON_000190.JPG,06_09_DON_000191.JPG,06_09_DON_000192.JPG,2,NA,NA,NOTHINGHERE
1025,37156777,06_09_DON_000193 (2).JPG,06_09_DON_000194 (2).JPG,06_09_DON_000195 (2).JPG,2,NA,NA,NOTHINGHERE
1026,37156778,06_09_DON_000193.JPG,06_09_DON_000194.JPG,06_09_DON_000195.JPG,2,NA,NA,NOTHINGHERE
1027,37156779,06_09_DON_000196 (2).JPG,06_09_DON_000197 (2).JPG,06_09_DON_000198 (2).JPG,2,NA,NA,NOTHINGHERE
1028,37156780,06_09_DON_000196.JPG,06_09_DON_000197.JPG,06_09_DON_000198.JPG,2,NA,NA,NOTHINGHERE
1029,37156781,06_09_DON_000199 (2).JPG,06_09_DON_000200 (2).JPG,06_09_DON_000201 (2).JPG,2,NA,NA,NOTHINGHERE
1030,37156782,06_09_DON_000199.JPG,06_09_DON_000200.JPG,06_09_DON_000201.JPG,2,NA,NA,NOTHINGHERE
1031,37156783,06_09_DON_000202 (2).JPG,06_09_DON_000203 (2).JPG,06_09_DON_000204 (2).JPG,2,NA,NA,NOTHINGHERE
1032,37156784,06_09_DON_000202.JPG,06_09_DON_000203.JPG,06_09_DON_000204.JPG,2,NA,NA,NOTHINGHERE
1033,37156785,06_09_DON_000205 (2).JPG,06_09_DON_000206 (2).JPG,06_09_DON_000207 (2).JPG,2,NA,NA,NOTHINGHERE
1034,37156786,06_09_DON_000205.JPG,06_09_DON_000206.JPG,NA,2,NA,NA,NOTHINGHERE
1035,37156787,06_09_DON_000208 (2).JPG,06_09_DON_000209 (2).JPG,06_09_DON_000210 (2).JPG,2,NA,NA,NOTHINGHERE
1036,37156788,06_09_DON_000211 (2).JPG,06_09_DON_000212 (2).JPG,06_09_DON_000213 (2).JPG,2,NA,NA,NOTHINGHERE
1037,37156789,06_09_DON_000211.JPG,06_09_DON_000212.JPG,06_09_DON_000213.JPG,2,NA,NA,NOTHINGHERE
1038,37156790,06_09_DON_000214 (2).JPG,06_09_DON_000215 (2).JPG,06_09_DON_000216 (2).JPG,2,NA,NA,NOTHINGHERE
1039,37156791,06_09_DON_000214.JPG,06_09_DON_000215.JPG,06_09_DON_000216.JPG,2,NA,NA,NOTHINGHERE
1040,37156792,06_09_DON_000217 (2).JPG,06_09_DON_000218 (2).JPG,06_09_DON_000219 (2).JPG,2,NA,NA,NOTHINGHERE
1041,37156793,06_09_DON_000217.JPG,06_09_DON_000218.JPG,06_09_DON_000219.JPG,2,NA,NA,NOTHINGHERE
1042,37156794,06_09_DON_000220 (2).JPG,06_09_DON_000221 (2).JPG,06_09_DON_000222 (2).JPG,2,NA,NA,NOTHINGHERE
1043,37156795,06_09_DON_000220.JPG,06_09_DON_000221.JPG,06_09_DON_000222.JPG,2,NA,NA,NOTHINGHERE
1044,37156796,06_09_DON_000223 (2).JPG,06_09_DON_000224 (2).JPG,06_09_DON_000225 (2).JPG,2,NA,NA,NOTHINGHERE
1045,37156797,06_09_DON_000223.JPG,06_09_DON_000224.JPG,06_09_DON_000225.JPG,2,NA,NA,NOTHINGHERE
1046,37156798,06_09_DON_000226 (2).JPG,06_09_DON_000227 (2).JPG,06_09_DON_000228 (2).JPG,2,NA,NA,NOTHINGHERE
1047,37156799,06_09_DON_000226.JPG,06_09_DON_000227.JPG,06_09_DON_000228.JPG,2,NA,NA,NOTHINGHERE
1048,37156800,06_09_DON_000229 (2).JPG,06_09_DON_000230 (2).JPG,06_09_DON_000231 (2).JPG,2,NA,NA,NOTHINGHERE
1049,37156801,06_09_DON_000229.JPG,06_09_DON_000230.JPG,06_09_DON_000231.JPG,2,NA,NA,NOTHINGHERE
1050,37156802,06_09_DON_000232 (2).JPG,06_09_DON_000233 (2).JPG,06_09_DON_000234 (2).JPG,2,NA,NA,NOTHINGHERE
1051,37156803,06_09_DON_000232.JPG,06_09_DON_000233.JPG,06_09_DON_000234.JPG,2,NA,NA,NOTHINGHERE
1052,37156804,06_09_DON_000235 (2).JPG,06_09_DON_000236 (2).JPG,06_09_DON_000237 (2).JPG,2,NA,NA,NOTHINGHERE
1053,37156805,06_09_DON_000235.JPG,06_09_DON_000236.JPG,06_09_DON_000237.JPG,2,NA,NA,NOTHINGHERE
1054,37156806,06_09_DON_000238 (2).JPG,06_09_DON_000239 (2).JPG,06_09_DON_000240 (2).JPG,2,NA,NA,NOTHINGHERE
1055,37156807,06_09_DON_000238.JPG,06_09_DON_000239.JPG,06_09_DON_000240.JPG,2,NA,NA,NOTHINGHERE
1056,37156808,06_09_DON_000241 (2).JPG,06_09_DON_000242 (2).JPG,06_09_DON_000243 (2).JPG,2,NA,NA,NOTHINGHERE
1057,37156809,06_09_DON_000241.JPG,06_09_DON_000242.JPG,06_09_DON_000243.JPG,2,NA,NA,NOTHINGHERE
1058,37156810,06_09_DON_000244 (2).JPG,06_09_DON_000245 (2).JPG,06_09_DON_000246 (2).JPG,2,NA,NA,NOTHINGHERE
1059,37156811,06_09_DON_000244.JPG,06_09_DON_000245.JPG,06_09_DON_000246.JPG,2,NA,NA,NOTHINGHERE
